timestamp,acc_x,acc_y,acc_z,gyro_x,gyro_y,gyro_z
1540821095597876000,-0.12449784576892853,-0.22026541829109192,9.691679000854492,-0.009587380103766918,-0.003195793367922306,-0.001065264455974102
1540821095599871000,-0.11013270914554596,-0.22026541829109192,9.706043243408203,-0.006391586735844612,-0.004261057823896408,-0.002130528911948204
1540821095601871000,-0.12449784576892853,-0.1867467761039734,9.677313804626465,-0.006391586735844612,-0.002130528911948204,-0.00532632227987051
1540821095603869000,-0.11013270914554596,-0.2250538021326065,9.725196838378906,-0.004261057823896408,0.001065264455974102,-0.003195793367922306
1540821095605868000,-0.10534433275461197,-0.20590028166770935,9.753927230834961,-0.001065264455974102,-0.003195793367922306,-0.002130528911948204
1540821095607871000,-0.11013270914554596,-0.2346305549144745,9.782657623291016,-0.001065264455974102,-0.002130528911948204,-0.003195793367922306
1540821095609870000,-0.11970946937799454,-0.21068866550922394,9.763504028320312,-0.001065264455974102,-0.002130528911948204,-0.003195793367922306
1540821095611872000,-0.1340745985507965,-0.21068866550922394,9.81138801574707,-0.004261057823896408,-0.002130528911948204,-0.003195793367922306
1540821095613872000,-0.16280487179756165,-0.2346305549144745,9.768292427062988,-0.00532632227987051,-0.00532632227987051,-0.002130528911948204
1540821095615871000,-0.16280487179756165,-0.21547704935073853,9.773080825805664,-0.006391586735844612,-0.008522115647792816,-0.002130528911948204
1540821095617871000,-0.14843973517417908,-0.17238163948059082,9.749138832092285,-0.003195793367922306,-0.006391586735844612,-0.002130528911948204
1540821095619872000,-0.14365136623382568,-0.24420730769634247,9.686890602111816,-0.003195793367922306,-0.002130528911948204,-0.003195793367922306
1540821095621870000,-0.10534433275461197,-0.2298421859741211,9.749138832092285,-0.00532632227987051,-0.002130528911948204,-0.001065264455974102
1540821095623871000,-0.10055595636367798,-0.25378406047821045,9.768292427062988,-0.004261057823896408,-0.002130528911948204,-0.004261057823896408
1540821095625871000,-0.11970946937799454,-0.2346305549144745,9.749138832092285,-0.00532632227987051,-0.0,-0.004261057823896408
1540821095627873000,-0.11013270914554596,-0.21547704935073853,9.787446022033691,-0.002130528911948204,-0.001065264455974102,-0.002130528911948204
1540821095629872000,-0.12449784576892853,-0.23941893875598907,9.816176414489746,-0.002130528911948204,-0.001065264455974102,-0.001065264455974102
1540821095631876000,-0.08619081974029541,-0.21068866550922394,9.753927230834961,-0.004261057823896408,-0.003195793367922306,-0.002130528911948204
1540821095633873000,-0.10055595636367798,-0.21068866550922394,9.816176414489746,-0.00532632227987051,-0.00532632227987051,-0.003195793367922306
1540821095635875000,-0.12449784576892853,-0.22026541829109192,9.782657623291016,-0.006391586735844612,-0.00532632227987051,-0.002130528911948204
1540821095637874000,-0.1819583922624588,-0.2298421859741211,9.753927230834961,-0.01065264455974102,-0.004261057823896408,-0.002130528911948204
1540821095639873000,-0.12449784576892853,-0.23941893875598907,9.658160209655762,-0.007456851191818714,-0.003195793367922306,-0.003195793367922306
1540821095641875000,-0.1388629823923111,-0.20590028166770935,9.701254844665527,-0.009587380103766918,-0.00532632227987051,-0.002130528911948204
1540821095643872000,-0.08140243589878082,-0.20590028166770935,9.758715629577637,-0.006391586735844612,-0.002130528911948204,-0.003195793367922306
1540821095645872000,-0.08619081974029541,-0.21068866550922394,9.729985237121582,-0.006391586735844612,-0.003195793367922306,-0.004261057823896408
1540821095647871000,-0.11970946937799454,-0.24899569153785706,9.768292427062988,-0.002130528911948204,-0.00532632227987051,-0.004261057823896408
1540821095649872000,-0.1388629823923111,-0.21547704935073853,9.768292427062988,0.001065264455974102,-0.00532632227987051,-0.003195793367922306
1540821095651871000,-0.10534433275461197,-0.20590028166770935,9.816176414489746,-0.00532632227987051,-0.00532632227987051,-0.004261057823896408
1540821095653872000,-0.11492109298706055,-0.2346305549144745,9.763504028320312,-0.007456851191818714,-0.003195793367922306,-0.00532632227987051
1540821095655874000,-0.1388629823923111,-0.24420730769634247,9.710831642150879,-0.00532632227987051,-0.00532632227987051,-0.002130528911948204
1540821095657872000,-0.1388629823923111,-0.2250538021326065,9.696466445922852,-0.00532632227987051,-0.00532632227987051,-0.00532632227987051
1540821095659876000,-0.1388629823923111,-0.2250538021326065,9.696466445922852,-0.00532632227987051,-0.00532632227987051,-0.00532632227987051
1540821095661875000,-0.1340745985507965,-0.2298421859741211,9.729985237121582,-0.003195793367922306,-0.00532632227987051,-0.001065264455974102
1540821095663875000,-0.10534433275461197,-0.2250538021326065,9.715620040893555,-0.00532632227987051,-0.003195793367922306,-0.0
1540821095665875000,-0.08619081974029541,-0.2298421859741211,9.763504028320312,-0.00532632227987051,-0.001065264455974102,-0.003195793367922306
1540821095667876000,-0.12449784576892853,-0.20111191272735596,9.763504028320312,-0.003195793367922306,0.001065264455974102,-0.0
1540821095669875000,-0.10534433275461197,-0.2729375958442688,9.768292427062988,-0.00532632227987051,-0.003195793367922306,-0.001065264455974102
1540821095671873000,-0.1388629823923111,-0.19632352888584137,9.782657623291016,-0.00532632227987051,-0.006391586735844612,-0.00532632227987051
1540821095673875000,-0.14843973517417908,-0.20590028166770935,9.753927230834961,-0.004261057823896408,-0.00532632227987051,-0.004261057823896408
1540821095675874000,-0.15322811901569366,-0.19632352888584137,9.74435043334961,-0.00532632227987051,-0.00532632227987051,-0.006391586735844612
1540821095677882000,-0.1819583922624588,-0.20111191272735596,9.710831642150879,-0.007456851191818714,-0.00532632227987051,-0.006391586735844612
1540821095679875000,-0.14365136623382568,-0.22026541829109192,9.710831642150879,-0.003195793367922306,-0.00532632227987051,-0.003195793367922306
1540821095681873000,-0.11492109298706055,-0.1867467761039734,9.725196838378906,-0.00532632227987051,-0.00532632227987051,-0.00532632227987051
1540821095683871000,-0.12449784576892853,-0.20111191272735596,9.74435043334961,-0.004261057823896408,0.001065264455974102,-0.007456851191818714
1540821095685870000,-0.11492109298706055,-0.20111191272735596,9.739562034606934,-0.003195793367922306,-0.0,-0.003195793367922306
1540821095687872000,-0.11970946937799454,-0.19632352888584137,9.763504028320312,-0.00532632227987051,-0.0,-0.002130528911948204
1540821095689871000,-0.12449784576892853,-0.19632352888584137,9.782657623291016,-0.006391586735844612,0.001065264455974102,-0.003195793367922306
1540821095691874000,-0.15322811901569366,-0.21547704935073853,9.77786922454834,-0.00532632227987051,-0.004261057823896408,-0.004261057823896408
1540821095693873000,-0.11970946937799454,-0.20590028166770935,9.782657623291016,-0.00532632227987051,-0.00532632227987051,-0.002130528911948204
1540821095695876000,-0.10534433275461197,-0.2346305549144745,9.763504028320312,-0.004261057823896408,-0.004261057823896408,-0.00532632227987051
1540821095697876000,-0.1340745985507965,-0.2729375958442688,9.768292427062988,-0.006391586735844612,-0.002130528911948204,-0.0
1540821095699873000,-0.1771700084209442,-0.2250538021326065,9.696466445922852,-0.007456851191818714,-0.00532632227987051,-0.002130528911948204
1540821095701873000,-0.12928622961044312,-0.25378406047821045,9.729985237121582,-0.004261057823896408,-0.004261057823896408,-0.001065264455974102
1540821095703873000,-0.11013270914554596,-0.19632352888584137,9.773080825805664,-0.004261057823896408,-0.003195793367922306,-0.003195793367922306
1540821095705874000,-0.16280487179756165,-0.2298421859741211,9.753927230834961,-0.002130528911948204,-0.001065264455974102,-0.004261057823896408
1540821095707873000,-0.1388629823923111,-0.20590028166770935,9.806599617004395,-0.003195793367922306,0.001065264455974102,-0.003195793367922306
1540821095709873000,-0.11013270914554596,-0.20111191272735596,9.729985237121582,-0.002130528911948204,-0.001065264455974102,-0.003195793367922306
1540821095711875000,-0.12928622961044312,-0.21547704935073853,9.749138832092285,-0.002130528911948204,-0.003195793367922306,-0.004261057823896408
1540821095713876000,-0.12928622961044312,-0.1819583922624588,9.77786922454834,-0.002130528911948204,-0.00532632227987051,-0.002130528911948204
1540821095715874000,-0.11013270914554596,-0.21547704935073853,9.753927230834961,-0.006391586735844612,-0.006391586735844612,-0.00532632227987051
1540821095717874000,-0.16759325563907623,-0.19153514504432678,9.773080825805664,-0.007456851191818714,-0.001065264455974102,-0.00532632227987051
1540821095719873000,-0.14365136623382568,-0.19632352888584137,9.729985237121582,-0.006391586735844612,-0.001065264455974102,-0.004261057823896408
1540821095721870000,-0.11970946937799454,-0.2346305549144745,9.763504028320312,-0.00532632227987051,-0.004261057823896408,-0.004261057823896408
1540821095723871000,-0.12928622961044312,-0.2298421859741211,9.763504028320312,-0.004261057823896408,-0.004261057823896408,-0.00532632227987051
1540821095725871000,-0.1340745985507965,-0.24420730769634247,9.77786922454834,-0.001065264455974102,-0.002130528911948204,-0.004261057823896408
1540821095727871000,-0.1388629823923111,-0.22026541829109192,9.787446022033691,-0.00532632227987051,-0.001065264455974102,0.001065264455974102
1540821095729877000,-0.1340745985507965,-0.24420730769634247,9.787446022033691,-0.00532632227987051,-0.003195793367922306,-0.002130528911948204
1540821095731876000,-0.1340745985507965,-0.24420730769634247,9.787446022033691,-0.00532632227987051,-0.003195793367922306,-0.002130528911948204
1540821095733875000,-0.1340745985507965,-0.24420730769634247,9.773080825805664,-0.00532632227987051,-0.003195793367922306,-0.00532632227987051
1540821095735872000,-0.16280487179756165,-0.2250538021326065,9.792234420776367,-0.007456851191818714,-0.004261057823896408,-0.003195793367922306
1540821095737874000,-0.15801650285720825,-0.21547704935073853,9.782657623291016,-0.008522115647792816,-0.004261057823896408,-0.004261057823896408
1540821095739875000,-0.10055595636367798,-0.21547704935073853,9.734773635864258,-0.008522115647792816,-0.004261057823896408,-0.003195793367922306
1540821095741874000,-0.16280487179756165,-0.20590028166770935,9.74435043334961,-0.008522115647792816,-0.003195793367922306,-0.002130528911948204
1540821095743874000,-0.1340745985507965,-0.19632352888584137,9.72040843963623,-0.007456851191818714,-0.003195793367922306,-0.004261057823896408
1540821095745874000,-0.10055595636367798,-0.21547704935073853,9.725196838378906,-0.004261057823896408,-0.003195793367922306,-0.004261057823896408
1540821095747873000,-0.11492109298706055,-0.2346305549144745,9.753927230834961,-0.00532632227987051,-0.004261057823896408,-0.003195793367922306
1540821095749880000,-0.12449784576892853,-0.21547704935073853,9.74435043334961,-0.00532632227987051,-0.002130528911948204,-0.003195793367922306
1540821095751873000,-0.11492109298706055,-0.21068866550922394,9.74435043334961,-0.007456851191818714,-0.003195793367922306,-0.003195793367922306
1540821095753871000,-0.1340745985507965,-0.21068866550922394,9.77786922454834,-0.008522115647792816,-0.00532632227987051,-0.006391586735844612
1540821095755870000,-0.16759325563907623,-0.20111191272735596,9.72040843963623,-0.008522115647792816,-0.003195793367922306,-0.004261057823896408
1540821095757871000,-0.16280487179756165,-0.2298421859741211,9.74435043334961,-0.006391586735844612,-0.003195793367922306,-0.006391586735844612
1540821095759871000,-0.15322811901569366,-0.22026541829109192,9.763504028320312,-0.004261057823896408,-0.004261057823896408,-0.00532632227987051
1540821095761875000,-0.14365136623382568,-0.19153514504432678,9.701254844665527,-0.008522115647792816,-0.006391586735844612,-0.00532632227987051
1540821095763874000,-0.14365136623382568,-0.2250538021326065,9.691679000854492,-0.00532632227987051,-0.002130528911948204,-0.002130528911948204
1540821095765874000,-0.12928622961044312,-0.2250538021326065,9.763504028320312,-0.004261057823896408,-0.001065264455974102,0.002130528911948204
1540821095767874000,-0.12928622961044312,-0.2250538021326065,9.763504028320312,-0.004261057823896408,-0.001065264455974102,0.002130528911948204
1540821095769874000,-0.12928622961044312,-0.25857245922088623,9.77786922454834,-0.004261057823896408,-0.001065264455974102,-0.006391586735844612
1540821095771874000,-0.1388629823923111,-0.24899569153785706,9.830541610717773,-0.004261057823896408,-0.002130528911948204,-0.00532632227987051
1540821095773876000,-0.1388629823923111,-0.20111191272735596,9.753927230834961,-0.008522115647792816,-0.004261057823896408,-0.003195793367922306
1540821095775872000,-0.1340745985507965,-0.1771700084209442,9.758715629577637,-0.00532632227987051,-0.00532632227987051,-0.002130528911948204
1540821095777873000,-0.1340745985507965,-0.20590028166770935,9.710831642150879,-0.007456851191818714,-0.007456851191818714,-0.003195793367922306
1540821095779874000,-0.1771700084209442,-0.20590028166770935,9.753927230834961,-0.01065264455974102,-0.00532632227987051,-0.00532632227987051
1540821095781878000,-0.09576757252216339,-0.1867467761039734,9.734773635864258,-0.008522115647792816,-0.0,-0.006391586735844612
1540821095783875000,-0.10534433275461197,-0.20590028166770935,9.715620040893555,-0.006391586735844612,-0.0,-0.00532632227987051
1540821095785875000,-0.10534433275461197,-0.1771700084209442,9.782657623291016,-0.002130528911948204,-0.003195793367922306,-0.002130528911948204
1540821095787871000,-0.11013270914554596,-0.19632352888584137,9.725196838378906,0.0,-0.002130528911948204,-0.003195793367922306
1540821095789887000,-0.10055595636367798,-0.2346305549144745,9.820964813232422,-0.003195793367922306,-0.002130528911948204,-0.00532632227987051
1540821095791877000,-0.11970946937799454,-0.2346305549144745,9.768292427062988,-0.003195793367922306,-0.00532632227987051,-0.004261057823896408
1540821095793875000,-0.11013270914554596,-0.24420730769634247,9.782657623291016,-0.006391586735844612,-0.003195793367922306,-0.004261057823896408
1540821095795874000,-0.1388629823923111,-0.2346305549144745,9.81138801574707,-0.008522115647792816,-0.001065264455974102,-0.003195793367922306
1540821095797877000,-0.12449784576892853,-0.20111191272735596,9.758715629577637,-0.007456851191818714,-0.004261057823896408,-0.002130528911948204
1540821095799877000,-0.16280487179756165,-0.2346305549144745,9.773080825805664,-0.00532632227987051,-0.003195793367922306,-0.003195793367922306
1540821095801875000,-0.11013270914554596,-0.19632352888584137,9.753927230834961,-0.002130528911948204,-0.0,-0.004261057823896408
1540821095803875000,-0.12928622961044312,-0.21547704935073853,9.706043243408203,-0.007456851191818714,0.001065264455974102,-0.002130528911948204
1540821095805872000,-0.14365136623382568,-0.24420730769634247,9.768292427062988,-0.006391586735844612,-0.001065264455974102,-0.003195793367922306
1540821095807871000,-0.10534433275461197,-0.20111191272735596,9.734773635864258,-0.002130528911948204,-0.0,-0.00532632227987051
1540821095809870000,-0.11013270914554596,-0.2250538021326065,9.787446022033691,-0.006391586735844612,0.001065264455974102,-0.006391586735844612
1540821095811871000,-0.14843973517417908,-0.1867467761039734,9.773080825805664,-0.003195793367922306,-0.001065264455974102,-0.00532632227987051
1540821095813871000,-0.11492109298706055,-0.20590028166770935,9.797022819519043,-0.00532632227987051,-0.003195793367922306,-0.00532632227987051
1540821095815870000,-0.10534433275461197,-0.2346305549144745,9.725196838378906,-0.003195793367922306,-0.003195793367922306,-0.00532632227987051
1540821095817870000,-0.14843973517417908,-0.1867467761039734,9.706043243408203,-0.008522115647792816,-0.003195793367922306,-0.003195793367922306
1540821095819869000,-0.14365136623382568,-0.2298421859741211,9.768292427062988,-0.007456851191818714,-0.002130528911948204,-0.00532632227987051
1540821095821870000,-0.09576757252216339,-0.20590028166770935,9.739562034606934,-0.004261057823896408,-0.001065264455974102,-0.004261057823896408
1540821095823894000,-0.11013270914554596,-0.19153514504432678,9.763504028320312,-0.007456851191818714,-0.003195793367922306,-0.003195793367922306
1540821095825871000,-0.1340745985507965,-0.25378406047821045,9.729985237121582,-0.008522115647792816,-0.001065264455974102,-0.002130528911948204
1540821095827871000,-0.14843973517417908,-0.23941893875598907,9.768292427062988,-0.002130528911948204,-0.002130528911948204,-0.004261057823896408
1540821095829872000,-0.14843973517417908,-0.2250538021326065,9.729985237121582,-0.006391586735844612,-0.003195793367922306,-0.007456851191818714
1540821095831878000,-0.12449784576892853,-0.16759325563907623,9.758715629577637,-0.006391586735844612,-0.004261057823896408,-0.004261057823896408
1540821095833871000,-0.11013270914554596,-0.21068866550922394,9.773080825805664,-0.004261057823896408,-0.006391586735844612,-0.004261057823896408
1540821095835873000,-0.11970946937799454,-0.2250538021326065,9.749138832092285,-0.00532632227987051,-0.00532632227987051,-0.00532632227987051
1540821095837872000,-0.14365136623382568,-0.19632352888584137,9.753927230834961,-0.004261057823896408,-0.00532632227987051,-0.001065264455974102
1540821095839894000,-0.14843973517417908,-0.1867467761039734,9.792234420776367,-0.006391586735844612,-0.00532632227987051,-0.003195793367922306
1540821095841878000,-0.15322811901569366,-0.2346305549144745,9.72040843963623,-0.008522115647792816,-0.004261057823896408,-0.002130528911948204
1540821095843875000,-0.12449784576892853,-0.2346305549144745,9.677313804626465,-0.002130528911948204,-0.002130528911948204,-0.002130528911948204
1540821095845876000,-0.12928622961044312,-0.1771700084209442,9.74435043334961,-0.003195793367922306,-0.002130528911948204,-0.004261057823896408
1540821095847873000,-0.12928622961044312,-0.23941893875598907,9.758715629577637,-0.00532632227987051,-0.002130528911948204,-0.004261057823896408
1540821095849871000,-0.11492109298706055,-0.20590028166770935,9.782657623291016,-0.001065264455974102,-0.003195793367922306,-0.002130528911948204
1540821095851873000,-0.12928622961044312,-0.21547704935073853,9.77786922454834,-0.004261057823896408,-0.003195793367922306,-0.003195793367922306
1540821095853872000,-0.1340745985507965,-0.1819583922624588,9.72040843963623,-0.006391586735844612,-0.004261057823896408,-0.00532632227987051
1540821095855872000,-0.15322811901569366,-0.19153514504432678,9.797022819519043,-0.003195793367922306,-0.001065264455974102,-0.004261057823896408
1540821095857871000,-0.09576757252216339,-0.19153514504432678,9.739562034606934,-0.006391586735844612,-0.003195793367922306,-0.003195793367922306
1540821095859875000,-0.12449784576892853,-0.2250538021326065,9.701254844665527,-0.006391586735844612,-0.003195793367922306,-0.003195793367922306
1540821095861873000,-0.11970946937799454,-0.19153514504432678,9.739562034606934,-0.00532632227987051,-0.001065264455974102,-0.004261057823896408
1540821095863875000,-0.11970946937799454,-0.19632352888584137,9.729985237121582,-0.006391586735844612,-0.003195793367922306,-0.003195793367922306
1540821095865872000,-0.1340745985507965,-0.1819583922624588,9.74435043334961,-0.00532632227987051,-0.002130528911948204,0.001065264455974102
1540821095867875000,-0.12928622961044312,-0.20111191272735596,9.753927230834961,-0.002130528911948204,-0.003195793367922306,-0.001065264455974102
1540821095869874000,-0.1340745985507965,-0.21068866550922394,9.820964813232422,-0.004261057823896408,-0.004261057823896408,-0.00532632227987051
1540821095871874000,-0.11970946937799454,-0.20590028166770935,9.768292427062988,-0.004261057823896408,-0.002130528911948204,-0.002130528911948204
1540821095873874000,-0.1340745985507965,-0.25857245922088623,9.749138832092285,-0.00532632227987051,-0.004261057823896408,-0.002130528911948204
1540821095875872000,-0.1340745985507965,-0.25857245922088623,9.749138832092285,-0.00532632227987051,-0.004261057823896408,-0.002130528911948204
1540821095877875000,-0.14365136623382568,-0.20590028166770935,9.749138832092285,-0.008522115647792816,-0.004261057823896408,-0.001065264455974102
1540821095879875000,-0.12928622961044312,-0.21547704935073853,9.739562034606934,-0.002130528911948204,-0.00532632227987051,-0.002130528911948204
1540821095881874000,-0.1340745985507965,-0.20111191272735596,9.74435043334961,-0.00532632227987051,-0.004261057823896408,-0.002130528911948204
1540821095883877000,-0.11492109298706055,-0.24420730769634247,9.729985237121582,-0.007456851191818714,-0.004261057823896408,-0.004261057823896408
1540821095885872000,-0.14843973517417908,-0.25857245922088623,9.753927230834961,-0.004261057823896408,-0.002130528911948204,-0.003195793367922306
1540821095887872000,-0.11013270914554596,-0.23941893875598907,9.753927230834961,-0.003195793367922306,-0.002130528911948204,-0.002130528911948204
1540821095889870000,-0.11970946937799454,-0.23941893875598907,9.81138801574707,-0.00532632227987051,-0.003195793367922306,-0.006391586735844612
1540821095891882000,-0.12928622961044312,-0.20111191272735596,9.729985237121582,-0.006391586735844612,-0.00532632227987051,-0.004261057823896408
1540821095893874000,-0.12449784576892853,-0.2298421859741211,9.77786922454834,-0.004261057823896408,-0.00532632227987051,-0.003195793367922306
1540821095895873000,-0.15322811901569366,-0.2346305549144745,9.74435043334961,-0.003195793367922306,-0.004261057823896408,-0.003195793367922306
1540821095897874000,-0.12449784576892853,-0.21068866550922394,9.734773635864258,-0.007456851191818714,-0.00532632227987051,-0.00532632227987051
1540821095899873000,-0.16280487179756165,-0.20590028166770935,9.749138832092285,-0.009587380103766918,-0.003195793367922306,-0.0
1540821095901875000,-0.1819583922624588,-0.20111191272735596,9.739562034606934,-0.009587380103766918,-0.003195793367922306,-0.004261057823896408
1540821095903873000,-0.11013270914554596,-0.16280487179756165,9.715620040893555,-0.008522115647792816,-0.003195793367922306,-0.003195793367922306
1540821095905874000,-0.10534433275461197,-0.21547704935073853,9.806599617004395,-0.00532632227987051,-0.003195793367922306,-0.00532632227987051
1540821095907874000,-0.12928622961044312,-0.20590028166770935,9.797022819519043,-0.004261057823896408,-0.003195793367922306,-0.003195793367922306
1540821095909874000,-0.11492109298706055,-0.21068866550922394,9.792234420776367,-0.003195793367922306,-0.003195793367922306,-0.004261057823896408
1540821095911876000,-0.12449784576892853,-0.25378406047821045,9.816176414489746,-0.00532632227987051,-0.002130528911948204,-0.003195793367922306
1540821095913873000,-0.14365136623382568,-0.20111191272735596,9.758715629577637,-0.006391586735844612,-0.001065264455974102,-0.004261057823896408
1540821095915873000,-0.16759325563907623,-0.19153514504432678,9.773080825805664,-0.007456851191818714,-0.001065264455974102,-0.006391586735844612
1540821095917873000,-0.10534433275461197,-0.2346305549144745,9.749138832092285,-0.006391586735844612,-0.002130528911948204,-0.006391586735844612
1540821095919872000,-0.16280487179756165,-0.21068866550922394,9.72040843963623,-0.007456851191818714,-0.00532632227987051,-0.003195793367922306
1540821095921872000,-0.1340745985507965,-0.20590028166770935,9.768292427062988,-0.007456851191818714,-0.00532632227987051,-0.0
1540821095923873000,-0.1388629823923111,-0.15801650285720825,9.715620040893555,-0.003195793367922306,-0.004261057823896408,0.001065264455974102
1540821095925873000,-0.14365136623382568,-0.1867467761039734,9.763504028320312,-0.001065264455974102,-0.004261057823896408,-0.001065264455974102
1540821095927874000,-0.12928622961044312,-0.21547704935073853,9.773080825805664,-0.001065264455974102,-0.004261057823896408,-0.001065264455974102
1540821095929876000,-0.15322811901569366,-0.2298421859741211,9.753927230834961,-0.003195793367922306,-0.002130528911948204,-0.004261057823896408
1540821095931875000,-0.11013270914554596,-0.19632352888584137,9.83533000946045,-0.008522115647792816,-0.0,-0.003195793367922306
1540821095933886000,-0.14365136623382568,-0.20590028166770935,9.83533000946045,-0.008522115647792816,-0.006391586735844612,-0.006391586735844612
1540821095935875000,-0.1388629823923111,-0.21547704935073853,9.758715629577637,-0.01065264455974102,-0.006391586735844612,-0.00532632227987051
1540821095937873000,-0.1388629823923111,-0.22026541829109192,9.787446022033691,-0.00532632227987051,-0.004261057823896408,-0.003195793367922306
1540821095939878000,-0.1388629823923111,-0.22026541829109192,9.787446022033691,-0.00532632227987051,-0.004261057823896408,-0.003195793367922306
1540821095941870000,-0.11013270914554596,-0.20111191272735596,9.715620040893555,-0.01065264455974102,-0.004261057823896408,-0.007456851191818714
1540821095943872000,-0.1340745985507965,-0.2250538021326065,9.749138832092285,-0.007456851191818714,-0.00532632227987051,-0.003195793367922306
1540821095945870000,-0.1819583922624588,-0.23941893875598907,9.715620040893555,-0.004261057823896408,-0.00532632227987051,-0.006391586735844612
1540821095947872000,-0.14365136623382568,-0.20590028166770935,9.768292427062988,0.0,-0.002130528911948204,-0.003195793367922306
1540821095949870000,-0.1340745985507965,-0.22026541829109192,9.768292427062988,-0.001065264455974102,-0.002130528911948204,-0.006391586735844612
1540821095951874000,-0.1388629823923111,-0.22026541829109192,9.763504028320312,-0.003195793367922306,-0.001065264455974102,-0.00532632227987051
1540821095953872000,-0.14843973517417908,-0.2250538021326065,9.725196838378906,-0.004261057823896408,-0.004261057823896408,-0.004261057823896408
1540821095955876000,-0.11492109298706055,-0.21068866550922394,9.81138801574707,-0.009587380103766918,-0.002130528911948204,-0.004261057823896408
1540821095957874000,-0.12928622961044312,-0.21068866550922394,9.753927230834961,-0.006391586735844612,-0.003195793367922306,-0.003195793367922306
1540821095959874000,-0.15801650285720825,-0.20590028166770935,9.739562034606934,-0.008522115647792816,-0.004261057823896408,-0.0
1540821095961883000,-0.12928622961044312,-0.20590028166770935,9.725196838378906,-0.011717909015715122,-0.006391586735844612,-0.003195793367922306
1540821095963874000,-0.12449784576892853,-0.2346305549144745,9.729985237121582,-0.007456851191818714,-0.006391586735844612,-0.00532632227987051
1540821095965873000,-0.14365136623382568,-0.25857245922088623,9.739562034606934,-0.006391586735844612,-0.004261057823896408,-0.006391586735844612
1540821095967874000,-0.12449784576892853,-0.21547704935073853,9.749138832092285,-0.002130528911948204,-0.002130528911948204,-0.00532632227987051
1540821095969873000,-0.10055595636367798,-0.20111191272735596,9.763504028320312,-0.002130528911948204,-0.003195793367922306,-0.004261057823896408
1540821095971874000,-0.14365136623382568,-0.19153514504432678,9.749138832092285,-0.007456851191818714,-0.002130528911948204,-0.00532632227987051
1540821095973871000,-0.1819583922624588,-0.24899569153785706,9.797022819519043,-0.004261057823896408,-0.00532632227987051,-0.003195793367922306
1540821095975872000,-0.12928622961044312,-0.20590028166770935,9.739562034606934,-0.00532632227987051,-0.004261057823896408,-0.003195793367922306
1540821095977870000,-0.14365136623382568,-0.20590028166770935,9.768292427062988,-0.007456851191818714,-0.003195793367922306,-0.004261057823896408
1540821095979872000,-0.08140243589878082,-0.25378406047821045,9.701254844665527,-0.009587380103766918,-0.003195793367922306,-0.004261057823896408
1540821095981872000,-0.11970946937799454,-0.21068866550922394,9.725196838378906,-0.006391586735844612,-0.003195793367922306,-0.006391586735844612
1540821095983873000,-0.11013270914554596,-0.2250538021326065,9.749138832092285,-0.004261057823896408,-0.002130528911948204,-0.00532632227987051
1540821095985879000,-0.14843973517417908,-0.21068866550922394,9.725196838378906,-0.004261057823896408,-0.00532632227987051,-0.00532632227987051
1540821095987878000,-0.10534433275461197,-0.19632352888584137,9.763504028320312,-0.006391586735844612,-0.001065264455974102,-0.002130528911948204
1540821095989874000,-0.10055595636367798,-0.17238163948059082,9.74435043334961,-0.00532632227987051,-0.003195793367922306,-0.002130528911948204
1540821095991875000,-0.10055595636367798,-0.2250538021326065,9.768292427062988,-0.003195793367922306,-0.003195793367922306,-0.001065264455974102
1540821095993873000,-0.12928622961044312,-0.20111191272735596,9.768292427062988,-0.003195793367922306,-0.004261057823896408,-0.004261057823896408
1540821095995874000,-0.10534433275461197,-0.21068866550922394,9.758715629577637,-0.003195793367922306,-0.004261057823896408,-0.00532632227987051
1540821095997876000,-0.16759325563907623,-0.22026541829109192,9.81138801574707,-0.007456851191818714,-0.004261057823896408,-0.004261057823896408
1540821095999875000,-0.1388629823923111,-0.24420730769634247,9.773080825805664,-0.008522115647792816,-0.001065264455974102,-0.0
1540821096001872000,-0.1388629823923111,-0.24420730769634247,9.768292427062988,-0.00532632227987051,-0.002130528911948204,-0.002130528911948204
1540821096003883000,-0.17238163948059082,-0.20590028166770935,9.706043243408203,-0.004261057823896408,-0.001065264455974102,-0.004261057823896408
1540821096005876000,-0.16280487179756165,-0.19632352888584137,9.773080825805664,-0.004261057823896408,-0.001065264455974102,-0.006391586735844612
1540821096007874000,-0.1388629823923111,-0.25378406047821045,9.801811218261719,-0.00532632227987051,-0.002130528911948204,-0.00532632227987051
1540821096009872000,-0.12928622961044312,-0.2250538021326065,9.763504028320312,-0.00532632227987051,-0.002130528911948204,-0.002130528911948204
1540821096011877000,-0.16280487179756165,-0.20590028166770935,9.715620040893555,-0.00532632227987051,-0.003195793367922306,-0.004261057823896408
1540821096013873000,-0.11970946937799454,-0.20590028166770935,9.74435043334961,-0.003195793367922306,-0.002130528911948204,-0.004261057823896408
1540821096015876000,-0.10534433275461197,-0.2346305549144745,9.763504028320312,-0.006391586735844612,-0.003195793367922306,-0.004261057823896408
1540821096017874000,-0.12928622961044312,-0.19153514504432678,9.801811218261719,-0.006391586735844612,-0.004261057823896408,-0.00532632227987051
1540821096019873000,-0.15801650285720825,-0.19632352888584137,9.706043243408203,-0.004261057823896408,-0.00532632227987051,-0.002130528911948204
1540821096021874000,-0.14365136623382568,-0.19153514504432678,9.739562034606934,-0.008522115647792816,-0.002130528911948204,-0.003195793367922306
1540821096023875000,-0.1388629823923111,-0.22026541829109192,9.701254844665527,-0.00532632227987051,-0.002130528911948204,-0.00532632227987051
1540821096025873000,-0.16280487179756165,-0.21068866550922394,9.763504028320312,-0.004261057823896408,-0.003195793367922306,-0.002130528911948204
1540821096027873000,-0.1340745985507965,-0.19153514504432678,9.74435043334961,-0.006391586735844612,-0.003195793367922306,-0.006391586735844612
1540821096029872000,-0.11492109298706055,-0.20590028166770935,9.763504028320312,-0.006391586735844612,-0.004261057823896408,-0.004261057823896408
1540821096031872000,-0.15322811901569366,-0.20111191272735596,9.763504028320312,-0.004261057823896408,-0.004261057823896408,-0.004261057823896408
1540821096033873000,-0.11013270914554596,-0.23941893875598907,9.806599617004395,-0.00532632227987051,-0.006391586735844612,-0.004261057823896408
1540821096035870000,-0.14843973517417908,-0.22026541829109192,9.753927230834961,-0.004261057823896408,-0.00532632227987051,-0.006391586735844612
1540821096037875000,-0.15322811901569366,-0.21547704935073853,9.715620040893555,-0.004261057823896408,-0.006391586735844612,-0.00532632227987051
1540821096039871000,-0.1388629823923111,-0.19153514504432678,9.782657623291016,-0.006391586735844612,-0.006391586735844612,-0.002130528911948204
1540821096041870000,-0.14843973517417908,-0.2250538021326065,9.734773635864258,-0.008522115647792816,-0.003195793367922306,-0.002130528911948204
1540821096043870000,-0.12928622961044312,-0.25378406047821045,9.725196838378906,-0.008522115647792816,-0.00532632227987051,-0.002130528911948204
1540821096045871000,-0.1388629823923111,-0.2346305549144745,9.706043243408203,-0.004261057823896408,-0.002130528911948204,-0.00532632227987051
1540821096047872000,-0.12449784576892853,-0.21068866550922394,9.72040843963623,-0.006391586735844612,-0.001065264455974102,-0.004261057823896408
1540821096049871000,-0.10534433275461197,-0.20590028166770935,9.739562034606934,-0.003195793367922306,-0.001065264455974102,-0.002130528911948204
1540821096051872000,-0.12928622961044312,-0.19632352888584137,9.787446022033691,-0.003195793367922306,-0.002130528911948204,-0.00532632227987051
1540821096053871000,-0.1340745985507965,-0.19632352888584137,9.830541610717773,-0.006391586735844612,-0.001065264455974102,-0.00532632227987051
1540821096055872000,-0.09576757252216339,-0.2633608281612396,9.77786922454834,-0.00532632227987051,-0.004261057823896408,-0.002130528911948204
1540821096057870000,-0.12928622961044312,-0.2346305549144745,9.782657623291016,-0.009587380103766918,-0.003195793367922306,-0.001065264455974102
1540821096059874000,-0.10534433275461197,-0.24420730769634247,9.74435043334961,-0.00532632227987051,-0.003195793367922306,-0.002130528911948204
1540821096061873000,-0.11013270914554596,-0.20590028166770935,9.749138832092285,-0.003195793367922306,-0.007456851191818714,-0.002130528911948204
1540821096063873000,-0.16280487179756165,-0.22026541829109192,9.72040843963623,-0.007456851191818714,-0.001065264455974102,-0.007456851191818714
1540821096065874000,-0.11970946937799454,-0.21068866550922394,9.77786922454834,-0.007456851191818714,-0.002130528911948204,-0.007456851191818714
1540821096067871000,-0.1340745985507965,-0.2346305549144745,9.782657623291016,-0.004261057823896408,-0.003195793367922306,-0.001065264455974102
1540821096069871000,-0.07661405950784683,-0.2250538021326065,9.763504028320312,-0.004261057823896408,-0.0,-0.002130528911948204
1540821096071871000,-0.11492109298706055,-0.21547704935073853,9.691679000854492,-0.00532632227987051,-0.0,-0.004261057823896408
1540821096073871000,-0.15801650285720825,-0.20111191272735596,9.825753211975098,-0.007456851191818714,-0.002130528911948204,-0.003195793367922306
1540821096075871000,-0.12928622961044312,-0.1867467761039734,9.81138801574707,-0.00532632227987051,-0.004261057823896408,-0.004261057823896408
1540821096077870000,-0.15801650285720825,-0.1867467761039734,9.787446022033691,-0.006391586735844612,-0.004261057823896408,-0.00532632227987051
1540821096079871000,-0.11970946937799454,-0.19632352888584137,9.749138832092285,-0.008522115647792816,-0.003195793367922306,-0.00532632227987051
1540821096081870000,-0.1388629823923111,-0.19153514504432678,9.725196838378906,-0.004261057823896408,-0.004261057823896408,-0.00532632227987051
1540821096083870000,-0.1388629823923111,-0.19153514504432678,9.725196838378906,-0.004261057823896408,-0.004261057823896408,-0.00532632227987051
1540821096085870000,-0.16280487179756165,-0.2298421859741211,9.739562034606934,-0.00532632227987051,-0.003195793367922306,-0.003195793367922306
1540821096087878000,-0.10534433275461197,-0.16280487179756165,9.74435043334961,-0.006391586735844612,-0.002130528911948204,-0.003195793367922306
1540821096089875000,-0.12449784576892853,-0.1867467761039734,9.792234420776367,-0.00532632227987051,-0.002130528911948204,-0.002130528911948204
1540821096091875000,-0.12449784576892853,-0.2250538021326065,9.806599617004395,-0.00532632227987051,-0.0,-0.004261057823896408
1540821096093875000,-0.11013270914554596,-0.2250538021326065,9.801811218261719,-0.008522115647792816,-0.002130528911948204,-0.004261057823896408
1540821096095873000,-0.11970946937799454,-0.2250538021326065,9.820964813232422,-0.00532632227987051,-0.006391586735844612,-0.004261057823896408
1540821096097874000,-0.15322811901569366,-0.16759325563907623,9.77786922454834,-0.004261057823896408,-0.00532632227987051,-0.002130528911948204
1540821096099874000,-0.11013270914554596,-0.19632352888584137,9.710831642150879,-0.00532632227987051,-0.004261057823896408,-0.003195793367922306
1540821096101873000,-0.11492109298706055,-0.2346305549144745,9.749138832092285,-0.00532632227987051,-0.006391586735844612,-0.002130528911948204
1540821096103873000,-0.1340745985507965,-0.2346305549144745,9.753927230834961,-0.00532632227987051,-0.004261057823896408,-0.001065264455974102
1540821096105874000,-0.12449784576892853,-0.2298421859741211,9.77786922454834,-0.007456851191818714,-0.004261057823896408,-0.003195793367922306
1540821096107873000,-0.1340745985507965,-0.2298421859741211,9.739562034606934,-0.004261057823896408,-0.001065264455974102,-0.002130528911948204
1540821096109873000,-0.11970946937799454,-0.24899569153785706,9.753927230834961,-0.007456851191818714,-0.001065264455974102,-0.002130528911948204
1540821096111874000,-0.12928622961044312,-0.25857245922088623,9.749138832092285,-0.006391586735844612,-0.001065264455974102,-0.003195793367922306
1540821096113873000,-0.11970946937799454,-0.2298421859741211,9.739562034606934,-0.00532632227987051,-0.001065264455974102,-0.00532632227987051
1540821096115874000,-0.1388629823923111,-0.24420730769634247,9.792234420776367,-0.00532632227987051,-0.003195793367922306,-0.002130528911948204
1540821096117873000,-0.14365136623382568,-0.2250538021326065,9.782657623291016,-0.006391586735844612,-0.002130528911948204,-0.002130528911948204
1540821096119874000,-0.1388629823923111,-0.2250538021326065,9.749138832092285,-0.008522115647792816,-0.002130528911948204,-0.001065264455974102
1540821096121874000,-0.12928622961044312,-0.19153514504432678,9.787446022033691,-0.00532632227987051,-0.004261057823896408,-0.002130528911948204
1540821096123873000,-0.17238163948059082,-0.20590028166770935,9.715620040893555,-0.006391586735844612,-0.004261057823896408,-0.003195793367922306
1540821096125880000,-0.14365136623382568,-0.22026541829109192,9.773080825805664,-0.00532632227987051,-0.006391586735844612,-0.003195793367922306
1540821096127874000,-0.10534433275461197,-0.2729375958442688,9.758715629577637,-0.004261057823896408,-0.002130528911948204,-0.004261057823896408
1540821096129878000,-0.11970946937799454,-0.2298421859741211,9.820964813232422,-0.001065264455974102,-0.001065264455974102,-0.00532632227987051
1540821096131874000,-0.11970946937799454,-0.2346305549144745,9.729985237121582,-0.00532632227987051,-0.004261057823896408,-0.004261057823896408
1540821096133873000,-0.0909791961312294,-0.20111191272735596,9.696466445922852,-0.004261057823896408,-0.007456851191818714,-0.0
1540821096135873000,-0.12928622961044312,-0.24899569153785706,9.72040843963623,-0.004261057823896408,-0.002130528911948204,-0.001065264455974102
1540821096137888000,-0.14365136623382568,-0.23941893875598907,9.749138832092285,-0.008522115647792816,-0.002130528911948204,-0.001065264455974102
1540821096139875000,-0.1340745985507965,-0.19632352888584137,9.792234420776367,-0.009587380103766918,-0.00532632227987051,-0.003195793367922306
1540821096141870000,-0.14843973517417908,-0.19632352888584137,9.72040843963623,-0.01065264455974102,-0.006391586735844612,-0.001065264455974102
1540821096143870000,-0.17238163948059082,-0.24899569153785706,9.763504028320312,-0.004261057823896408,-0.004261057823896408,-0.001065264455974102
1540821096145872000,-0.15801650285720825,-0.19632352888584137,9.763504028320312,-0.006391586735844612,0.001065264455974102,-0.004261057823896408
1540821096147873000,-0.11492109298706055,-0.21547704935073853,9.710831642150879,-0.00532632227987051,-0.001065264455974102,-0.00532632227987051
1540821096149872000,-0.11013270914554596,-0.20590028166770935,9.725196838378906,-0.003195793367922306,-0.001065264455974102,-0.003195793367922306
1540821096151870000,-0.10534433275461197,-0.21068866550922394,9.773080825805664,-0.003195793367922306,-0.0,-0.006391586735844612
1540821096153872000,-0.12928622961044312,-0.19153514504432678,9.83533000946045,-0.00532632227987051,-0.002130528911948204,-0.004261057823896408
1540821096155870000,-0.12928622961044312,-0.22026541829109192,9.797022819519043,-0.006391586735844612,-0.003195793367922306,-0.004261057823896408
1540821096157878000,-0.14365136623382568,-0.1867467761039734,9.797022819519043,-0.006391586735844612,-0.004261057823896408,-0.006391586735844612
1540821096159876000,-0.15322811901569366,-0.23941893875598907,9.801811218261719,-0.008522115647792816,-0.007456851191818714,-0.006391586735844612
1540821096161873000,-0.12449784576892853,-0.19632352888584137,9.758715629577637,-0.006391586735844612,-0.006391586735844612,-0.001065264455974102
1540821096163874000,-0.17238163948059082,-0.20111191272735596,9.753927230834961,-0.004261057823896408,-0.00532632227987051,-0.002130528911948204
1540821096165876000,-0.1340745985507965,-0.21547704935073853,9.667737007141113,-0.00532632227987051,-0.004261057823896408,-0.001065264455974102
1540821096167873000,-0.11492109298706055,-0.21547704935073853,9.768292427062988,-0.00532632227987051,-0.002130528911948204,-0.001065264455974102
1540821096169875000,-0.1388629823923111,-0.21547704935073853,9.77786922454834,-0.004261057823896408,-0.002130528911948204,-0.00532632227987051
1540821096171873000,-0.11970946937799454,-0.21068866550922394,9.820964813232422,-0.004261057823896408,-0.002130528911948204,-0.003195793367922306
1540821096173875000,-0.11013270914554596,-0.24899569153785706,9.725196838378906,-0.00532632227987051,-0.002130528911948204,-0.004261057823896408
1540821096175873000,-0.14843973517417908,-0.24420730769634247,9.758715629577637,-0.006391586735844612,-0.006391586735844612,-0.003195793367922306
1540821096177877000,-0.12928622961044312,-0.19632352888584137,9.77786922454834,-0.006391586735844612,-0.004261057823896408,-0.002130528911948204
1540821096179872000,-0.11492109298706055,-0.21547704935073853,9.739562034606934,-0.009587380103766918,-0.00532632227987051,-0.002130528911948204
1540821096181874000,-0.09576757252216339,-0.21547704935073853,9.758715629577637,-0.008522115647792816,-0.007456851191818714,-0.004261057823896408
1540821096183873000,-0.14365136623382568,-0.21547704935073853,9.725196838378906,-0.007456851191818714,-0.002130528911948204,-0.00532632227987051
1540821096185873000,-0.1388629823923111,-0.15801650285720825,9.701254844665527,-0.004261057823896408,-0.003195793367922306,0.002130528911948204
1540821096187872000,-0.12928622961044312,-0.19153514504432678,9.729985237121582,-0.003195793367922306,-0.003195793367922306,0.001065264455974102
1540821096189877000,-0.10055595636367798,-0.2298421859741211,9.768292427062988,-0.004261057823896408,-0.001065264455974102,-0.0
1540821096191872000,-0.11492109298706055,-0.20590028166770935,9.758715629577637,-0.002130528911948204,-0.001065264455974102,-0.001065264455974102
1540821096193870000,-0.1340745985507965,-0.24899569153785706,9.74435043334961,-0.002130528911948204,-0.002130528911948204,-0.00532632227987051
1540821096195875000,-0.14365136623382568,-0.23941893875598907,9.77786922454834,-0.00532632227987051,-0.004261057823896408,-0.001065264455974102
1540821096197875000,-0.15801650285720825,-0.19153514504432678,9.806599617004395,-0.007456851191818714,-0.004261057823896408,-0.004261057823896408
1540821096199873000,-0.16280487179756165,-0.2346305549144745,9.72040843963623,-0.006391586735844612,-0.004261057823896408,-0.003195793367922306
1540821096201873000,-0.12928622961044312,-0.22026541829109192,9.773080825805664,-0.004261057823896408,-0.004261057823896408,-0.003195793367922306
1540821096203872000,-0.12928622961044312,-0.1867467761039734,9.696466445922852,-0.00532632227987051,-0.002130528911948204,-0.006391586735844612
1540821096205872000,-0.1388629823923111,-0.2250538021326065,9.715620040893555,-0.003195793367922306,-0.002130528911948204,-0.006391586735844612
1540821096207873000,-0.14365136623382568,-0.21547704935073853,9.696466445922852,-0.007456851191818714,-0.002130528911948204,-0.003195793367922306
1540821096209872000,-0.0909791961312294,-0.24420730769634247,9.725196838378906,-0.004261057823896408,-0.0,-0.002130528911948204
1540821096211875000,-0.11492109298706055,-0.2298421859741211,9.806599617004395,0.0,0.001065264455974102,-0.00532632227987051
1540821096213873000,-0.11013270914554596,-0.23941893875598907,9.782657623291016,-0.00532632227987051,-0.00532632227987051,-0.00532632227987051
1540821096215872000,-0.10055595636367798,-0.24420730769634247,9.792234420776367,-0.008522115647792816,-0.00532632227987051,0.001065264455974102
1540821096217874000,-0.10534433275461197,-0.2298421859741211,9.773080825805664,-0.00532632227987051,-0.006391586735844612,-0.004261057823896408
1540821096219872000,-0.12449784576892853,-0.2250538021326065,9.787446022033691,-0.00532632227987051,-0.00532632227987051,-0.006391586735844612
1540821096221863000,-0.1771700084209442,-0.20111191272735596,9.696466445922852,-0.00532632227987051,-0.00532632227987051,-0.007456851191818714
1540821096223877000,-0.14843973517417908,-0.23941893875598907,9.729985237121582,-0.00532632227987051,-0.00532632227987051,-0.003195793367922306
1540821096225873000,-0.14843973517417908,-0.1867467761039734,9.74435043334961,-0.007456851191818714,-0.00532632227987051,-0.003195793367922306
1540821096227881000,-0.08619081974029541,-0.21547704935073853,9.710831642150879,-0.006391586735844612,-0.004261057823896408,-0.003195793367922306
1540821096229873000,-0.10055595636367798,-0.21547704935073853,9.763504028320312,-0.004261057823896408,-0.001065264455974102,-0.00532632227987051
1540821096231874000,-0.11970946937799454,-0.22026541829109192,9.792234420776367,-0.004261057823896408,-0.002130528911948204,-0.003195793367922306
1540821096233873000,-0.12449784576892853,-0.2250538021326065,9.81138801574707,-0.004261057823896408,0.001065264455974102,-0.002130528911948204
1540821096235875000,-0.11492109298706055,-0.1867467761039734,9.773080825805664,-0.00532632227987051,0.001065264455974102,-0.003195793367922306
1540821096237873000,-0.11492109298706055,-0.22026541829109192,9.787446022033691,-0.008522115647792816,-0.004261057823896408,-0.002130528911948204
1540821096239877000,-0.14843973517417908,-0.20590028166770935,9.725196838378906,-0.006391586735844612,-0.003195793367922306,-0.003195793367922306
1540821096241874000,-0.11970946937799454,-0.17238163948059082,9.691679000854492,-0.007456851191818714,-0.003195793367922306,-0.004261057823896408
1540821096243875000,-0.1388629823923111,-0.19632352888584137,9.753927230834961,-0.007456851191818714,-0.006391586735844612,-0.004261057823896408
1540821096245874000,-0.14365136623382568,-0.1867467761039734,9.72040843963623,-0.006391586735844612,-0.002130528911948204,-0.002130528911948204
1540821096247872000,-0.12928622961044312,-0.19153514504432678,9.749138832092285,-0.00532632227987051,-0.006391586735844612,-0.003195793367922306
1540821096249872000,-0.11013270914554596,-0.1771700084209442,9.658160209655762,-0.004261057823896408,-0.003195793367922306,-0.001065264455974102
1540821096251874000,-0.10534433275461197,-0.21068866550922394,9.758715629577637,-0.001065264455974102,-0.001065264455974102,-0.00532632227987051
1540821096253874000,-0.15801650285720825,-0.21068866550922394,9.72040843963623,-0.00532632227987051,-0.002130528911948204,-0.004261057823896408
1540821096255872000,-0.1388629823923111,-0.2250538021326065,9.797022819519043,-0.00532632227987051,-0.002130528911948204,-0.003195793367922306
1540821096257871000,-0.15801650285720825,-0.20590028166770935,9.801811218261719,-0.00532632227987051,-0.004261057823896408,-0.004261057823896408
1540821096259871000,-0.14365136623382568,-0.2346305549144745,9.715620040893555,-0.006391586735844612,-0.007456851191818714,-0.003195793367922306
1540821096261869000,-0.14365136623382568,-0.1819583922624588,9.701254844665527,-0.003195793367922306,-0.00532632227987051,-0.004261057823896408
1540821096263870000,-0.1388629823923111,-0.1771700084209442,9.734773635864258,-0.009587380103766918,-0.00532632227987051,-0.004261057823896408
1540821096265873000,-0.11492109298706055,-0.19632352888584137,9.715620040893555,-0.009587380103766918,-0.006391586735844612,-0.001065264455974102
1540821096267871000,-0.16759325563907623,-0.19632352888584137,9.72040843963623,-0.003195793367922306,-0.004261057823896408,-0.001065264455974102
1540821096269871000,-0.11013270914554596,-0.19632352888584137,9.773080825805664,-0.002130528911948204,-0.001065264455974102,0.001065264455974102
1540821096271878000,-0.1340745985507965,-0.1867467761039734,9.773080825805664,-0.002130528911948204,-0.001065264455974102,-0.003195793367922306
1540821096273871000,-0.08619081974029541,-0.2633608281612396,9.81138801574707,-0.004261057823896408,-0.002130528911948204,-0.00532632227987051
1540821096275870000,-0.0909791961312294,-0.2346305549144745,9.797022819519043,-0.004261057823896408,-0.004261057823896408,-0.006391586735844612
1540821096277873000,-0.15801650285720825,-0.2346305549144745,9.797022819519043,-0.004261057823896408,-0.003195793367922306,-0.001065264455974102
1540821096279873000,-0.12928622961044312,-0.2250538021326065,9.763504028320312,-0.00532632227987051,-0.003195793367922306,-0.001065264455974102
1540821096281873000,-0.1388629823923111,-0.268149197101593,9.81138801574707,-0.007456851191818714,-0.00532632227987051,-0.003195793367922306
1540821096283872000,-0.1819583922624588,-0.21068866550922394,9.782657623291016,-0.009587380103766918,-0.00532632227987051,-0.003195793367922306
1540821096285873000,-0.1388629823923111,-0.19153514504432678,9.706043243408203,-0.00532632227987051,-0.003195793367922306,-0.004261057823896408
1540821096287871000,-0.10534433275461197,-0.2250538021326065,9.753927230834961,-0.006391586735844612,-0.004261057823896408,-0.007456851191818714
1540821096289871000,-0.12449784576892853,-0.1867467761039734,9.749138832092285,-0.003195793367922306,-0.002130528911948204,-0.003195793367922306
1540821096291878000,-0.11970946937799454,-0.20590028166770935,9.77786922454834,-0.002130528911948204,-0.002130528911948204,-0.004261057823896408
1540821096293874000,-0.11970946937799454,-0.22026541829109192,9.768292427062988,-0.00532632227987051,-0.002130528911948204,-0.006391586735844612
1540821096295872000,-0.11970946937799454,-0.24899569153785706,9.792234420776367,-0.00532632227987051,-0.0,-0.003195793367922306
1540821096297871000,-0.12449784576892853,-0.20590028166770935,9.77786922454834,-0.00532632227987051,-0.003195793367922306,-0.004261057823896408
1540821096299870000,-0.1340745985507965,-0.20111191272735596,9.72040843963623,-0.004261057823896408,-0.007456851191818714,-0.00532632227987051
1540821096301871000,-0.14365136623382568,-0.22026541829109192,9.74435043334961,-0.01065264455974102,-0.006391586735844612,-0.003195793367922306
1540821096303870000,-0.16759325563907623,-0.16280487179756165,9.686890602111816,-0.009587380103766918,-0.006391586735844612,-0.003195793367922306
1540821096305875000,-0.1340745985507965,-0.2250538021326065,9.667737007141113,-0.007456851191818714,-0.004261057823896408,-0.003195793367922306
1540821096307873000,-0.14843973517417908,-0.20590028166770935,9.734773635864258,-0.007456851191818714,-0.002130528911948204,-0.004261057823896408
1540821096309876000,-0.14843973517417908,-0.24899569153785706,9.74435043334961,-0.00532632227987051,-0.002130528911948204,-0.004261057823896408
1540821096311875000,-0.12449784576892853,-0.2298421859741211,9.753927230834961,-0.00532632227987051,0.001065264455974102,-0.003195793367922306
1540821096313874000,-0.0909791961312294,-0.19632352888584137,9.758715629577637,-0.004261057823896408,-0.001065264455974102,-0.003195793367922306
1540821096315873000,-0.10534433275461197,-0.22026541829109192,9.825753211975098,-0.004261057823896408,-0.004261057823896408,-0.004261057823896408
1540821096317873000,-0.10534433275461197,-0.20590028166770935,9.74435043334961,-0.003195793367922306,-0.003195793367922306,-0.004261057823896408
1540821096319879000,-0.16280487179756165,-0.1771700084209442,9.758715629577637,-0.006391586735844612,-0.004261057823896408,-0.007456851191818714
1540821096321873000,-0.11492109298706055,-0.19153514504432678,9.710831642150879,-0.01065264455974102,-0.006391586735844612,-0.001065264455974102
1540821096323873000,-0.16759325563907623,-0.21547704935073853,9.734773635864258,-0.007456851191818714,-0.007456851191818714,-0.001065264455974102
1540821096325873000,-0.14365136623382568,-0.2298421859741211,9.74435043334961,-0.00532632227987051,-0.004261057823896408,-0.006391586735844612
1540821096327873000,-0.12928622961044312,-0.24420730769634247,9.706043243408203,-0.006391586735844612,-0.002130528911948204,-0.001065264455974102
1540821096329872000,-0.16759325563907623,-0.2298421859741211,9.768292427062988,-0.004261057823896408,-0.004261057823896408,-0.00532632227987051
1540821096331872000,-0.11492109298706055,-0.2250538021326065,9.773080825805664,-0.002130528911948204,-0.001065264455974102,-0.003195793367922306
1540821096333872000,-0.12928622961044312,-0.21547704935073853,9.706043243408203,-0.00532632227987051,-0.001065264455974102,-0.002130528911948204
1540821096335872000,-0.11492109298706055,-0.20590028166770935,9.749138832092285,-0.00532632227987051,-0.003195793367922306,-0.003195793367922306
1540821096337872000,-0.11013270914554596,-0.23941893875598907,9.8449068069458,-0.00532632227987051,-0.0,-0.003195793367922306
1540821096339871000,-0.14365136623382568,-0.24899569153785706,9.74435043334961,-0.006391586735844612,-0.003195793367922306,-0.003195793367922306
1540821096341870000,-0.12928622961044312,-0.2298421859741211,9.739562034606934,-0.009587380103766918,-0.002130528911948204,-0.002130528911948204
1540821096343876000,-0.14843973517417908,-0.21547704935073853,9.701254844665527,-0.008522115647792816,-0.003195793367922306,-0.004261057823896408
1540821096345875000,-0.12449784576892853,-0.24420730769634247,9.715620040893555,-0.00532632227987051,-0.00532632227987051,-0.004261057823896408
1540821096347876000,-0.10534433275461197,-0.25378406047821045,9.763504028320312,-0.00532632227987051,-0.00532632227987051,-0.00532632227987051
1540821096349873000,-0.11492109298706055,-0.20590028166770935,9.715620040893555,-0.00532632227987051,-0.003195793367922306,-0.00532632227987051
1540821096351874000,-0.09576757252216339,-0.2298421859741211,9.768292427062988,-0.004261057823896408,-0.00532632227987051,-0.003195793367922306
1540821096353874000,-0.12449784576892853,-0.20590028166770935,9.725196838378906,-0.004261057823896408,-0.002130528911948204,-0.002130528911948204
1540821096355873000,-0.07661405950784683,-0.22026541829109192,9.753927230834961,-0.006391586735844612,-0.0,-0.006391586735844612
1540821096357875000,-0.12928622961044312,-0.2250538021326065,9.787446022033691,-0.004261057823896408,-0.00532632227987051,-0.003195793367922306
1540821096359872000,-0.16759325563907623,-0.2298421859741211,9.797022819519043,-0.007456851191818714,-0.006391586735844612,-0.002130528911948204
1540821096361873000,-0.10055595636367798,-0.24420730769634247,9.768292427062988,-0.007456851191818714,-0.004261057823896408,-0.006391586735844612
1540821096363874000,-0.15322811901569366,-0.20590028166770935,9.691679000854492,-0.00532632227987051,-0.003195793367922306,-0.003195793367922306
1540821096365871000,-0.12449784576892853,-0.20111191272735596,9.662948608398438,-0.004261057823896408,-0.002130528911948204,-0.001065264455974102
1540821096367874000,-0.16280487179756165,-0.20111191272735596,9.729985237121582,-0.00532632227987051,-0.002130528911948204,-0.00532632227987051
1540821096369872000,-0.15322811901569366,-0.1867467761039734,9.725196838378906,-0.006391586735844612,-0.003195793367922306,-0.01065264455974102
1540821096371872000,-0.11970946937799454,-0.21068866550922394,9.715620040893555,-0.002130528911948204,-0.003195793367922306,-0.00532632227987051
1540821096373875000,-0.12449784576892853,-0.22026541829109192,9.825753211975098,-0.003195793367922306,-0.002130528911948204,-0.004261057823896408
1540821096375872000,-0.14365136623382568,-0.2298421859741211,9.792234420776367,-0.003195793367922306,-0.004261057823896408,-0.006391586735844612
1540821096377873000,-0.14843973517417908,-0.20111191272735596,9.782657623291016,-0.00532632227987051,-0.003195793367922306,-0.001065264455974102
1540821096379875000,-0.15322811901569366,-0.21068866550922394,9.768292427062988,-0.009587380103766918,-0.003195793367922306,-0.002130528911948204
1540821096381873000,-0.15801650285720825,-0.20111191272735596,9.763504028320312,-0.01065264455974102,-0.002130528911948204,-0.006391586735844612
1540821096383875000,-0.12928622961044312,-0.20111191272735596,9.725196838378906,-0.009587380103766918,-0.004261057823896408,-0.003195793367922306
1540821096385874000,-0.12449784576892853,-0.21547704935073853,9.773080825805664,-0.007456851191818714,-0.004261057823896408,-0.002130528911948204
1540821096387875000,-0.1340745985507965,-0.20590028166770935,9.768292427062988,-0.00532632227987051,-0.001065264455974102,-0.002130528911948204
1540821096389874000,-0.11492109298706055,-0.20111191272735596,9.734773635864258,-0.003195793367922306,0.002130528911948204,-0.003195793367922306
1540821096391874000,-0.15801650285720825,-0.19632352888584137,9.801811218261719,-0.00532632227987051,-0.0,-0.003195793367922306
1540821096393879000,-0.12449784576892853,-0.24420730769634247,9.763504028320312,-0.004261057823896408,-0.003195793367922306,-0.002130528911948204
1540821096395874000,-0.1340745985507965,-0.2633608281612396,9.734773635864258,-0.003195793367922306,-0.003195793367922306,-0.003195793367922306
1540821096397872000,-0.12928622961044312,-0.23941893875598907,9.729985237121582,-0.003195793367922306,-0.004261057823896408,-0.002130528911948204
1540821096399869000,-0.15322811901569366,-0.23941893875598907,9.801811218261719,-0.007456851191818714,-0.00532632227987051,-0.004261057823896408
1540821096401872000,-0.10534433275461197,-0.2298421859741211,9.773080825805664,-0.006391586735844612,-0.004261057823896408,-0.003195793367922306
1540821096403871000,-0.15801650285720825,-0.19632352888584137,9.729985237121582,-0.008522115647792816,-0.004261057823896408,-0.004261057823896408
1540821096405870000,-0.16759325563907623,-0.21068866550922394,9.758715629577637,-0.006391586735844612,-0.00532632227987051,-0.00532632227987051
1540821096407870000,-0.1340745985507965,-0.2298421859741211,9.710831642150879,-0.00532632227987051,-0.00532632227987051,-0.001065264455974102
1540821096409872000,-0.10055595636367798,-0.21068866550922394,9.729985237121582,-0.00532632227987051,-0.002130528911948204,-0.002130528911948204
1540821096411875000,-0.12449784576892853,-0.22026541829109192,9.820964813232422,-0.00532632227987051,-0.002130528911948204,-0.004261057823896408
1540821096413874000,-0.1388629823923111,-0.23941893875598907,9.773080825805664,-0.00532632227987051,-0.003195793367922306,-0.003195793367922306
1540821096415873000,-0.10055595636367798,-0.21547704935073853,9.792234420776367,-0.00532632227987051,-0.002130528911948204,0.001065264455974102
1540821096417874000,-0.16280487179756165,-0.2298421859741211,9.739562034606934,-0.004261057823896408,-0.003195793367922306,-0.003195793367922306
1540821096419873000,-0.1388629823923111,-0.21068866550922394,9.763504028320312,-0.006391586735844612,-0.00532632227987051,-0.003195793367922306
1540821096421874000,-0.14843973517417908,-0.24420730769634247,9.68210220336914,-0.007456851191818714,-0.006391586735844612,-0.002130528911948204
1540821096423874000,-0.1771700084209442,-0.20590028166770935,9.773080825805664,-0.007456851191818714,-0.006391586735844612,-0.003195793367922306
1540821096425877000,-0.12928622961044312,-0.19632352888584137,9.739562034606934,-0.006391586735844612,-0.003195793367922306,-0.004261057823896408
1540821096427875000,-0.1388629823923111,-0.2825143337249756,9.677313804626465,-0.00532632227987051,0.001065264455974102,-0.001065264455974102
1540821096429875000,-0.11492109298706055,-0.20111191272735596,9.729985237121582,-0.006391586735844612,-0.001065264455974102,-0.002130528911948204
1540821096431874000,-0.09576757252216339,-0.2346305549144745,9.72040843963623,-0.006391586735844612,-0.00532632227987051,-0.00532632227987051
1540821096433874000,-0.12449784576892853,-0.19153514504432678,9.768292427062988,-0.00532632227987051,-0.00532632227987051,-0.00532632227987051
1540821096435869000,-0.1388629823923111,-0.2250538021326065,9.749138832092285,-0.007456851191818714,-0.003195793367922306,-0.004261057823896408
1540821096437861000,-0.12449784576892853,-0.19153514504432678,9.77786922454834,-0.006391586735844612,-0.002130528911948204,-0.001065264455974102
1540821096439874000,-0.12449784576892853,-0.20111191272735596,9.715620040893555,-0.006391586735844612,-0.004261057823896408,-0.002130528911948204
1540821096441872000,-0.12449784576892853,-0.20111191272735596,9.753927230834961,-0.008522115647792816,-0.00532632227987051,-0.00532632227987051
1540821096443871000,-0.15801650285720825,-0.14843973517417908,9.734773635864258,-0.00532632227987051,-0.003195793367922306,-0.006391586735844612
1540821096445879000,-0.1771700084209442,-0.1819583922624588,9.763504028320312,-0.007456851191818714,-0.00532632227987051,-0.006391586735844612
1540821096447871000,-0.09576757252216339,-0.20111191272735596,9.734773635864258,-0.009587380103766918,-0.003195793367922306,-0.00532632227987051
1540821096449873000,-0.11013270914554596,-0.21068866550922394,9.72040843963623,-0.004261057823896408,-0.001065264455974102,-0.002130528911948204
1540821096451872000,-0.11013270914554596,-0.20590028166770935,9.806599617004395,-0.004261057823896408,-0.002130528911948204,-0.0
1540821096453871000,-0.09576757252216339,-0.24420730769634247,9.825753211975098,-0.004261057823896408,-0.001065264455974102,-0.003195793367922306
1540821096455873000,-0.11013270914554596,-0.22026541829109192,9.787446022033691,-0.00532632227987051,-0.003195793367922306,-0.004261057823896408
1540821096457872000,-0.12449784576892853,-0.2346305549144745,9.710831642150879,-0.002130528911948204,-0.004261057823896408,-0.004261057823896408
1540821096459872000,-0.1867467761039734,-0.20111191272735596,9.758715629577637,-0.00532632227987051,-0.004261057823896408,-0.002130528911948204
1540821096461879000,-0.15322811901569366,-0.22026541829109192,9.763504028320312,-0.007456851191818714,-0.00532632227987051,-0.003195793367922306
1540821096463878000,-0.10534433275461197,-0.1771700084209442,9.77786922454834,-0.007456851191818714,-0.00532632227987051,-0.003195793367922306
1540821096465872000,-0.15322811901569366,-0.19632352888584137,9.706043243408203,-0.006391586735844612,-0.006391586735844612,-0.004261057823896408
1540821096467871000,-0.15322811901569366,-0.21068866550922394,9.715620040893555,-0.002130528911948204,-0.00532632227987051,-0.007456851191818714
1540821096469878000,-0.08619081974029541,-0.16759325563907623,9.686890602111816,-0.003195793367922306,-0.003195793367922306,-0.00532632227987051
1540821096471873000,-0.15801650285720825,-0.1771700084209442,9.739562034606934,-0.003195793367922306,-0.003195793367922306,-0.002130528911948204
1540821096473874000,-0.11013270914554596,-0.2346305549144745,9.758715629577637,-0.00532632227987051,-0.003195793367922306,-0.002130528911948204
1540821096475872000,-0.0909791961312294,-0.23941893875598907,9.792234420776367,-0.00532632227987051,-0.002130528911948204,-0.002130528911948204
1540821096477870000,-0.09576757252216339,-0.20111191272735596,9.864060401916504,-0.006391586735844612,-0.0,-0.00532632227987051
1540821096479870000,-0.12449784576892853,-0.22026541829109192,9.801811218261719,-0.006391586735844612,-0.003195793367922306,-0.004261057823896408
1540821096481869000,-0.14843973517417908,-0.20590028166770935,9.773080825805664,-0.007456851191818714,-0.002130528911948204,-0.004261057823896408
1540821096483868000,-0.14843973517417908,-0.20111191272735596,9.74435043334961,-0.004261057823896408,-0.001065264455974102,-0.002130528911948204
1540821096485869000,-0.12928622961044312,-0.21547704935073853,9.672525405883789,-0.004261057823896408,-0.00532632227987051,-0.004261057823896408
1540821096487869000,-0.14843973517417908,-0.19632352888584137,9.72040843963623,-0.004261057823896408,-0.00532632227987051,-0.00532632227987051
1540821096489876000,-0.1340745985507965,-0.21547704935073853,9.696466445922852,-0.003195793367922306,-0.002130528911948204,-0.003195793367922306
1540821096491871000,-0.11013270914554596,-0.25857245922088623,9.715620040893555,-0.003195793367922306,-0.002130528911948204,0.001065264455974102
1540821096493872000,-0.10534433275461197,-0.21068866550922394,9.734773635864258,-0.003195793367922306,-0.002130528911948204,-0.001065264455974102
1540821096495879000,-0.11970946937799454,-0.24420730769634247,9.773080825805664,-0.004261057823896408,-0.002130528911948204,-0.002130528911948204
1540821096497879000,-0.1340745985507965,-0.22026541829109192,9.72040843963623,-0.00532632227987051,-0.002130528911948204,-0.003195793367922306
1540821096499875000,-0.0909791961312294,-0.1819583922624588,9.797022819519043,-0.006391586735844612,-0.00532632227987051,-0.0
1540821096501872000,-0.12449784576892853,-0.2250538021326065,9.72040843963623,-0.009587380103766918,-0.008522115647792816,-0.002130528911948204
1540821096503874000,-0.1388629823923111,-0.25378406047821045,9.816176414489746,-0.00532632227987051,-0.00532632227987051,-0.002130528911948204
1540821096505873000,-0.16280487179756165,-0.21068866550922394,9.677313804626465,-0.008522115647792816,-0.002130528911948204,-0.001065264455974102
1540821096507876000,-0.14365136623382568,-0.23941893875598907,9.701254844665527,-0.004261057823896408,-0.003195793367922306,-0.002130528911948204
1540821096509879000,-0.12449784576892853,-0.24899569153785706,9.715620040893555,-0.004261057823896408,-0.003195793367922306,-0.00532632227987051
1540821096511873000,-0.11013270914554596,-0.21547704935073853,9.710831642150879,-0.00532632227987051,-0.001065264455974102,-0.007456851191818714
1540821096513871000,-0.11013270914554596,-0.21547704935073853,9.710831642150879,-0.00532632227987051,-0.001065264455974102,-0.007456851191818714
1540821096515872000,-0.1340745985507965,-0.22026541829109192,9.768292427062988,-0.003195793367922306,-0.001065264455974102,-0.002130528911948204
1540821096517871000,-0.11970946937799454,-0.2346305549144745,9.792234420776367,-0.00532632227987051,-0.003195793367922306,-0.003195793367922306
1540821096519872000,-0.12449784576892853,-0.23941893875598907,9.749138832092285,-0.004261057823896408,-0.004261057823896408,-0.004261057823896408
1540821096521873000,-0.11492109298706055,-0.21547704935073853,9.768292427062988,-0.004261057823896408,-0.001065264455974102,-0.002130528911948204
1540821096523878000,-0.11492109298706055,-0.1771700084209442,9.758715629577637,-0.00532632227987051,-0.004261057823896408,-0.002130528911948204
1540821096525874000,-0.1340745985507965,-0.1819583922624588,9.758715629577637,-0.009587380103766918,-0.007456851191818714,-0.003195793367922306
1540821096527873000,-0.14843973517417908,-0.21547704935073853,9.729985237121582,-0.007456851191818714,-0.003195793367922306,-0.003195793367922306
1540821096529875000,-0.11492109298706055,-0.2346305549144745,9.739562034606934,-0.006391586735844612,-0.004261057823896408,-0.004261057823896408
1540821096531873000,-0.11013270914554596,-0.2298421859741211,9.749138832092285,-0.006391586735844612,-0.001065264455974102,-0.004261057823896408
1540821096533874000,-0.11013270914554596,-0.2298421859741211,9.749138832092285,-0.006391586735844612,-0.001065264455974102,-0.004261057823896408
1540821096535872000,-0.11492109298706055,-0.2298421859741211,9.686890602111816,-0.003195793367922306,-0.002130528911948204,-0.006391586735844612
1540821096537871000,-0.08140243589878082,-0.21068866550922394,9.763504028320312,-0.008522115647792816,-0.002130528911948204,-0.002130528911948204
1540821096539871000,-0.15801650285720825,-0.21068866550922394,9.77786922454834,-0.008522115647792816,-0.002130528911948204,-0.002130528911948204
1540821096541871000,-0.14365136623382568,-0.22026541829109192,9.768292427062988,-0.006391586735844612,-0.004261057823896408,-0.002130528911948204
1540821096543870000,-0.12928622961044312,-0.16280487179756165,9.725196838378906,-0.004261057823896408,-0.00532632227987051,-0.001065264455974102
1540821096545869000,-0.1388629823923111,-0.1819583922624588,9.758715629577637,-0.006391586735844612,-0.00532632227987051,-0.001065264455974102
1540821096547875000,-0.1340745985507965,-0.21068866550922394,9.686890602111816,-0.00532632227987051,-0.003195793367922306,-0.003195793367922306
1540821096549875000,-0.15801650285720825,-0.1819583922624588,9.72040843963623,-0.007456851191818714,-0.0,-0.003195793367922306
1540821096551877000,-0.15322811901569366,-0.19632352888584137,9.763504028320312,-0.003195793367922306,-0.002130528911948204,-0.002130528911948204
1540821096553874000,-0.16280487179756165,-0.21068866550922394,9.749138832092285,-0.006391586735844612,-0.0,-0.002130528911948204
1540821096555873000,-0.07182568311691284,-0.21068866550922394,9.820964813232422,-0.008522115647792816,-0.002130528911948204,-0.003195793367922306
1540821096557878000,-0.12449784576892853,-0.21068866550922394,9.758715629577637,-0.006391586735844612,-0.0,-0.00532632227987051
1540821096559874000,-0.12449784576892853,-0.2250538021326065,9.830541610717773,-0.006391586735844612,-0.001065264455974102,-0.003195793367922306
1540821096561875000,-0.14365136623382568,-0.22026541829109192,9.758715629577637,-0.006391586735844612,-0.002130528911948204,-0.006391586735844612
1540821096563874000,-0.1388629823923111,-0.19632352888584137,9.758715629577637,-0.008522115647792816,-0.004261057823896408,-0.00532632227987051
1540821096565872000,-0.1388629823923111,-0.21068866550922394,9.739562034606934,-0.007456851191818714,-0.001065264455974102,-0.002130528911948204
1540821096567870000,-0.12449784576892853,-0.20590028166770935,9.74435043334961,-0.00532632227987051,-0.001065264455974102,-0.002130528911948204
1540821096569871000,-0.15801650285720825,-0.2346305549144745,9.749138832092285,-0.00532632227987051,-0.003195793367922306,-0.003195793367922306
1540821096571872000,-0.15322811901569366,-0.2250538021326065,9.725196838378906,-0.003195793367922306,-0.001065264455974102,-0.004261057823896408
1540821096573873000,-0.12928622961044312,-0.2633608281612396,9.763504028320312,-0.003195793367922306,-0.001065264455974102,-0.001065264455974102
1540821096575875000,-0.12449784576892853,-0.25378406047821045,9.758715629577637,-0.002130528911948204,-0.001065264455974102,-0.003195793367922306
1540821096577873000,-0.07661405950784683,-0.2346305549144745,9.787446022033691,-0.004261057823896408,-0.0,-0.004261057823896408
1540821096579873000,-0.1388629823923111,-0.2250538021326065,9.739562034606934,-0.008522115647792816,-0.003195793367922306,-0.004261057823896408
1540821096581873000,-0.1388629823923111,-0.23941893875598907,9.840118408203125,-0.007456851191818714,-0.00532632227987051,-0.00532632227987051
1540821096583875000,-0.08619081974029541,-0.19153514504432678,9.725196838378906,-0.007456851191818714,-0.006391586735844612,-0.001065264455974102
1540821096585874000,-0.1340745985507965,-0.1819583922624588,9.753927230834961,-0.011717909015715122,-0.006391586735844612,-0.002130528911948204
1540821096587874000,-0.1340745985507965,-0.1819583922624588,9.715620040893555,-0.007456851191818714,-0.003195793367922306,-0.00532632227987051
1540821096589872000,-0.15801650285720825,-0.2298421859741211,9.72040843963623,-0.007456851191818714,-0.004261057823896408,-0.004261057823896408
1540821096591874000,-0.12928622961044312,-0.24899569153785706,9.72040843963623,-0.009587380103766918,-0.004261057823896408,-0.004261057823896408
1540821096593874000,-0.10055595636367798,-0.21547704935073853,9.696466445922852,-0.00532632227987051,-0.004261057823896408,-0.001065264455974102
1540821096595874000,-0.14843973517417908,-0.21068866550922394,9.787446022033691,-0.002130528911948204,-0.001065264455974102,-0.002130528911948204
1540821096597872000,-0.12449784576892853,-0.21068866550922394,9.72040843963623,-0.001065264455974102,-0.003195793367922306,-0.00532632227987051
1540821096599876000,-0.11970946937799454,-0.2346305549144745,9.768292427062988,-0.004261057823896408,-0.002130528911948204,-0.004261057823896408
1540821096601870000,-0.19153514504432678,-0.21068866550922394,9.801811218261719,-0.00532632227987051,-0.004261057823896408,-0.00532632227987051
1540821096603870000,-0.14365136623382568,-0.20111191272735596,9.758715629577637,-0.007456851191818714,-0.00532632227987051,-0.00532632227987051
1540821096605871000,-0.1771700084209442,-0.19153514504432678,9.753927230834961,-0.006391586735844612,-0.003195793367922306,-0.004261057823896408
1540821096607872000,-0.1388629823923111,-0.22026541829109192,9.768292427062988,-0.007456851191818714,-0.004261057823896408,-0.002130528911948204
1540821096609873000,-0.15801650285720825,-0.23941893875598907,9.701254844665527,-0.007456851191818714,-0.003195793367922306,-0.003195793367922306
1540821096611874000,-0.14843973517417908,-0.23941893875598907,9.677313804626465,-0.008522115647792816,-0.001065264455974102,-0.004261057823896408
1540821096613874000,-0.10534433275461197,-0.23941893875598907,9.782657623291016,-0.00532632227987051,-0.002130528911948204,-0.003195793367922306
1540821096615874000,-0.11970946937799454,-0.19632352888584137,9.74435043334961,-0.001065264455974102,-0.004261057823896408,-0.004261057823896408
1540821096617873000,-0.08619081974029541,-0.1867467761039734,9.792234420776367,-0.00532632227987051,-0.003195793367922306,-0.003195793367922306
1540821096619874000,-0.11970946937799454,-0.20111191272735596,9.763504028320312,-0.006391586735844612,-0.001065264455974102,-0.0
1540821096621873000,-0.11013270914554596,-0.2298421859741211,9.782657623291016,-0.002130528911948204,-0.004261057823896408,-0.0
1540821096623872000,-0.11492109298706055,-0.2298421859741211,9.81138801574707,-0.004261057823896408,-0.007456851191818714,-0.001065264455974102
1540821096625874000,-0.11970946937799454,-0.19632352888584137,9.739562034606934,-0.00532632227987051,-0.006391586735844612,-0.002130528911948204
1540821096627873000,-0.14365136623382568,-0.20590028166770935,9.725196838378906,-0.006391586735844612,-0.004261057823896408,-0.003195793367922306
1540821096629874000,-0.12928622961044312,-0.16759325563907623,9.710831642150879,-0.007456851191818714,-0.004261057823896408,-0.004261057823896408
1540821096631872000,-0.11492109298706055,-0.21068866550922394,9.72040843963623,-0.002130528911948204,-0.001065264455974102,-0.004261057823896408
1540821096633872000,-0.10055595636367798,-0.25857245922088623,9.763504028320312,-0.006391586735844612,-0.002130528911948204,-0.002130528911948204
1540821096635870000,-0.11492109298706055,-0.24420730769634247,9.739562034606934,-0.008522115647792816,-0.004261057823896408,-0.0
1540821096637871000,-0.11492109298706055,-0.2250538021326065,9.739562034606934,-0.006391586735844612,-0.003195793367922306,-0.002130528911948204
1540821096639871000,-0.10534433275461197,-0.2346305549144745,9.816176414489746,-0.006391586735844612,-0.002130528911948204,-0.004261057823896408
1540821096641872000,-0.1388629823923111,-0.23941893875598907,9.753927230834961,-0.006391586735844612,-0.003195793367922306,-0.003195793367922306
1540821096643873000,-0.14843973517417908,-0.1771700084209442,9.77786922454834,-0.004261057823896408,-0.007456851191818714,-0.006391586735844612
1540821096645876000,-0.12928622961044312,-0.2298421859741211,9.74435043334961,-0.006391586735844612,-0.00532632227987051,-0.002130528911948204
1540821096647876000,-0.16280487179756165,-0.1867467761039734,9.667737007141113,-0.009587380103766918,-0.0,-0.002130528911948204
1540821096649879000,-0.16280487179756165,-0.1867467761039734,9.667737007141113,-0.009587380103766918,-0.0,-0.002130528911948204
1540821096651882000,-0.15322811901569366,-0.25857245922088623,9.734773635864258,-0.006391586735844612,-0.002130528911948204,-0.002130528911948204
1540821096653875000,-0.11013270914554596,-0.2298421859741211,9.725196838378906,-0.00532632227987051,-0.004261057823896408,-0.003195793367922306
1540821096655873000,-0.16280487179756165,-0.2633608281612396,9.729985237121582,-0.00532632227987051,-0.001065264455974102,-0.006391586735844612
1540821096657873000,-0.14365136623382568,-0.23941893875598907,9.806599617004395,-0.00532632227987051,-0.003195793367922306,-0.003195793367922306
1540821096659873000,-0.11492109298706055,-0.21068866550922394,9.749138832092285,-0.002130528911948204,-0.004261057823896408,-0.003195793367922306
1540821096661873000,-0.14843973517417908,-0.2250538021326065,9.792234420776367,-0.00532632227987051,-0.002130528911948204,-0.001065264455974102
1540821096663874000,-0.15801650285720825,-0.20590028166770935,9.753927230834961,-0.009587380103766918,-0.004261057823896408,-0.001065264455974102
1540821096665871000,-0.17238163948059082,-0.19632352888584137,9.691679000854492,-0.004261057823896408,-0.00532632227987051,-0.001065264455974102
1540821096667871000,-0.1340745985507965,-0.22026541829109192,9.677313804626465,-0.006391586735844612,-0.002130528911948204,-0.0
1540821096669870000,-0.11013270914554596,-0.19632352888584137,9.753927230834961,-0.004261057823896408,-0.002130528911948204,-0.003195793367922306
1540821096671871000,-0.14843973517417908,-0.2298421859741211,9.74435043334961,-0.004261057823896408,-0.003195793367922306,-0.002130528911948204
1540821096673871000,-0.1340745985507965,-0.25378406047821045,9.749138832092285,-0.00532632227987051,-0.003195793367922306,-0.003195793367922306
1540821096675874000,-0.11013270914554596,-0.21068866550922394,9.782657623291016,-0.003195793367922306,-0.003195793367922306,-0.004261057823896408
1540821096677874000,-0.1340745985507965,-0.22026541829109192,9.77786922454834,-0.002130528911948204,-0.003195793367922306,-0.003195793367922306
1540821096679872000,-0.12928622961044312,-0.2346305549144745,9.763504028320312,-0.004261057823896408,-0.002130528911948204,-0.003195793367922306
1540821096681871000,-0.10534433275461197,-0.2298421859741211,9.81138801574707,-0.008522115647792816,-0.002130528911948204,-0.002130528911948204
1540821096683871000,-0.1340745985507965,-0.2250538021326065,9.758715629577637,-0.007456851191818714,-0.004261057823896408,-0.0
1540821096685870000,-0.15322811901569366,-0.2298421859741211,9.691679000854492,-0.00532632227987051,-0.004261057823896408,-0.001065264455974102
1540821096687872000,-0.16759325563907623,-0.20590028166770935,9.725196838378906,-0.007456851191818714,-0.006391586735844612,-0.003195793367922306
1540821096689871000,-0.14843973517417908,-0.21068866550922394,9.739562034606934,-0.00532632227987051,-0.004261057823896408,-0.003195793367922306
1540821096691871000,-0.15322811901569366,-0.21547704935073853,9.706043243408203,-0.00532632227987051,-0.004261057823896408,-0.003195793367922306
1540821096693872000,-0.15801650285720825,-0.24899569153785706,9.74435043334961,-0.003195793367922306,-0.003195793367922306,-0.002130528911948204
1540821096695876000,-0.11492109298706055,-0.19632352888584137,9.787446022033691,-0.003195793367922306,-0.001065264455974102,-0.003195793367922306
1540821096697875000,-0.12928622961044312,-0.2250538021326065,9.816176414489746,-0.007456851191818714,-0.004261057823896408,-0.004261057823896408
1540821096699879000,-0.1388629823923111,-0.21068866550922394,9.77786922454834,-0.00532632227987051,-0.003195793367922306,-0.001065264455974102
1540821096701878000,-0.11013270914554596,-0.22026541829109192,9.758715629577637,-0.00532632227987051,-0.003195793367922306,-0.001065264455974102
1540821096703873000,-0.16759325563907623,-0.1819583922624588,9.72040843963623,-0.008522115647792816,-0.003195793367922306,-0.001065264455974102
1540821096705870000,-0.12928622961044312,-0.23941893875598907,9.729985237121582,-0.01065264455974102,-0.006391586735844612,-0.007456851191818714
1540821096707870000,-0.14365136623382568,-0.2250538021326065,9.749138832092285,-0.007456851191818714,-0.002130528911948204,-0.002130528911948204
1540821096709872000,-0.12928622961044312,-0.21068866550922394,9.725196838378906,-0.00532632227987051,-0.002130528911948204,-0.00532632227987051
1540821096711880000,-0.1340745985507965,-0.21068866550922394,9.734773635864258,-0.004261057823896408,-0.004261057823896408,-0.003195793367922306
1540821096713875000,-0.1388629823923111,-0.22026541829109192,9.739562034606934,-0.004261057823896408,-0.0,-0.001065264455974102
1540821096715875000,-0.10055595636367798,-0.2346305549144745,9.74435043334961,-0.002130528911948204,0.003195793367922306,-0.0
1540821096717875000,-0.11013270914554596,-0.19632352888584137,9.792234420776367,-0.001065264455974102,-0.001065264455974102,-0.00532632227987051
1540821096719874000,-0.12449784576892853,-0.20590028166770935,9.758715629577637,-0.004261057823896408,-0.001065264455974102,-0.00532632227987051
1540821096721871000,-0.11492109298706055,-0.21547704935073853,9.840118408203125,-0.004261057823896408,-0.0,-0.006391586735844612
1540821096723873000,-0.12928622961044312,-0.21068866550922394,9.753927230834961,-0.006391586735844612,-0.004261057823896408,-0.002130528911948204
1540821096725874000,-0.14843973517417908,-0.20111191272735596,9.806599617004395,-0.008522115647792816,-0.006391586735844612,-0.002130528911948204
1540821096727873000,-0.12928622961044312,-0.21068866550922394,9.753927230834961,-0.007456851191818714,-0.003195793367922306,-0.00532632227987051
1540821096729875000,-0.15322811901569366,-0.2250538021326065,9.662948608398438,-0.008522115647792816,-0.002130528911948204,-0.001065264455974102
1540821096731875000,-0.11013270914554596,-0.21068866550922394,9.715620040893555,-0.006391586735844612,-0.002130528911948204,-0.003195793367922306
1540821096733872000,-0.09576757252216339,-0.19153514504432678,9.734773635864258,-0.004261057823896408,0.001065264455974102,-0.001065264455974102
1540821096735872000,-0.09576757252216339,-0.23941893875598907,9.797022819519043,-0.003195793367922306,0.001065264455974102,-0.00532632227987051
1540821096737870000,-0.11970946937799454,-0.24899569153785706,9.830541610717773,-0.002130528911948204,-0.0,-0.002130528911948204
1540821096739871000,-0.1340745985507965,-0.2825143337249756,9.801811218261719,-0.007456851191818714,-0.002130528911948204,-0.004261057823896408
1540821096741870000,-0.12449784576892853,-0.2250538021326065,9.74435043334961,-0.006391586735844612,-0.004261057823896408,-0.006391586735844612
1540821096743881000,-0.12928622961044312,-0.2250538021326065,9.739562034606934,-0.004261057823896408,-0.00532632227987051,-0.0
1540821096745872000,-0.1388629823923111,-0.20111191272735596,9.768292427062988,-0.009587380103766918,-0.007456851191818714,0.001065264455974102
1540821096747876000,-0.12449784576892853,-0.21547704935073853,9.773080825805664,-0.007456851191818714,-0.006391586735844612,-0.0
1540821096749875000,-0.16759325563907623,-0.19632352888584137,9.658160209655762,-0.004261057823896408,-0.004261057823896408,-0.004261057823896408
1540821096751876000,-0.1388629823923111,-0.2298421859741211,9.758715629577637,-0.006391586735844612,-0.004261057823896408,-0.001065264455974102
1540821096753885000,-0.1340745985507965,-0.19632352888584137,9.725196838378906,-0.00532632227987051,-0.001065264455974102,-0.003195793367922306
1540821096755876000,-0.11013270914554596,-0.2298421859741211,9.68210220336914,-0.00532632227987051,-0.001065264455974102,-0.001065264455974102
1540821096757876000,-0.15801650285720825,-0.20590028166770935,9.739562034606934,-0.004261057823896408,-0.004261057823896408,-0.004261057823896408
1540821096759874000,-0.11492109298706055,-0.25378406047821045,9.763504028320312,-0.004261057823896408,-0.001065264455974102,-0.007456851191818714
1540821096761875000,-0.1388629823923111,-0.1819583922624588,9.806599617004395,-0.004261057823896408,-0.001065264455974102,-0.004261057823896408
1540821096763874000,-0.1388629823923111,-0.2250538021326065,9.77786922454834,-0.007456851191818714,-0.004261057823896408,-0.00532632227987051
1540821096765874000,-0.12928622961044312,-0.19632352888584137,9.782657623291016,-0.007456851191818714,-0.006391586735844612,-0.00532632227987051
1540821096767874000,-0.16280487179756165,-0.22026541829109192,9.662948608398438,-0.006391586735844612,-0.003195793367922306,-0.00532632227987051
1540821096769870000,-0.12928622961044312,-0.1867467761039734,9.753927230834961,-0.008522115647792816,-0.003195793367922306,-0.002130528911948204
1540821096771873000,-0.1388629823923111,-0.23941893875598907,9.74435043334961,-0.007456851191818714,-0.002130528911948204,-0.003195793367922306
1540821096773870000,-0.16280487179756165,-0.20111191272735596,9.758715629577637,-0.004261057823896408,0.001065264455974102,-0.003195793367922306
1540821096775870000,-0.1340745985507965,-0.23941893875598907,9.773080825805664,-0.00532632227987051,-0.001065264455974102,-0.004261057823896408
1540821096777872000,-0.12449784576892853,-0.24899569153785706,9.782657623291016,-0.003195793367922306,-0.002130528911948204,-0.004261057823896408
1540821096779873000,-0.12449784576892853,-0.24899569153785706,9.782657623291016,-0.003195793367922306,-0.002130528911948204,-0.004261057823896408
1540821096781874000,-0.07182568311691284,-0.21068866550922394,9.81138801574707,-0.00532632227987051,-0.004261057823896408,0.001065264455974102
1540821096783872000,-0.1388629823923111,-0.1819583922624588,9.77786922454834,-0.00532632227987051,-0.00532632227987051,-0.001065264455974102
1540821096785873000,-0.16759325563907623,-0.1867467761039734,9.768292427062988,-0.007456851191818714,-0.003195793367922306,-0.003195793367922306
1540821096787873000,-0.1388629823923111,-0.21547704935073853,9.734773635864258,-0.006391586735844612,-0.004261057823896408,-0.004261057823896408
1540821096789873000,-0.16280487179756165,-0.19632352888584137,9.739562034606934,-0.006391586735844612,-0.00532632227987051,-0.002130528911948204
1540821096791875000,-0.1771700084209442,-0.22026541829109192,9.782657623291016,-0.006391586735844612,-0.003195793367922306,-0.001065264455974102
1540821096793874000,-0.10055595636367798,-0.24420730769634247,9.715620040893555,-0.009587380103766918,-0.003195793367922306,-0.0
1540821096795874000,-0.14365136623382568,-0.23941893875598907,9.749138832092285,-0.004261057823896408,-0.002130528911948204,-0.002130528911948204
1540821096797874000,-0.1388629823923111,-0.22026541829109192,9.734773635864258,-0.001065264455974102,-0.002130528911948204,-0.003195793367922306
1540821096799874000,-0.12928622961044312,-0.21068866550922394,9.801811218261719,-0.004261057823896408,-0.002130528911948204,-0.00532632227987051
1540821096801872000,-0.11492109298706055,-0.2250538021326065,9.81138801574707,-0.006391586735844612,-0.00532632227987051,-0.006391586735844612
1540821096803879000,-0.14365136623382568,-0.2298421859741211,9.820964813232422,-0.004261057823896408,-0.004261057823896408,-0.001065264455974102
1540821096805874000,-0.11970946937799454,-0.2250538021326065,9.758715629577637,-0.008522115647792816,-0.00532632227987051,-0.004261057823896408
1540821096807872000,-0.11970946937799454,-0.2250538021326065,9.758715629577637,-0.008522115647792816,-0.00532632227987051,-0.004261057823896408
1540821096809870000,-0.1340745985507965,-0.21068866550922394,9.768292427062988,-0.006391586735844612,-0.00532632227987051,-0.004261057823896408
1540821096811875000,-0.15801650285720825,-0.2250538021326065,9.696466445922852,-0.004261057823896408,-0.004261057823896408,-0.00532632227987051
1540821096813872000,-0.15322811901569366,-0.2250538021326065,9.729985237121582,-0.002130528911948204,-0.001065264455974102,-0.003195793367922306
1540821096815872000,-0.14365136623382568,-0.21068866550922394,9.739562034606934,-0.003195793367922306,0.001065264455974102,-0.004261057823896408
1540821096817874000,-0.10055595636367798,-0.25857245922088623,9.763504028320312,-0.002130528911948204,-0.0,-0.003195793367922306
1540821096819873000,-0.12449784576892853,-0.19153514504432678,9.753927230834961,-0.002130528911948204,-0.004261057823896408,-0.002130528911948204
1540821096821875000,-0.10534433275461197,-0.2346305549144745,9.787446022033691,-0.00532632227987051,-0.004261057823896408,-0.003195793367922306
1540821096823873000,-0.15801650285720825,-0.22026541829109192,9.74435043334961,-0.004261057823896408,-0.003195793367922306,-0.003195793367922306
1540821096825875000,-0.1388629823923111,-0.2250538021326065,9.696466445922852,-0.004261057823896408,-0.004261057823896408,-0.004261057823896408
1540821096827874000,-0.1340745985507965,-0.2298421859741211,9.77786922454834,-0.006391586735844612,-0.006391586735844612,-0.004261057823896408
1540821096829875000,-0.14843973517417908,-0.2250538021326065,9.729985237121582,-0.00532632227987051,-0.007456851191818714,-0.0
1540821096831873000,-0.11013270914554596,-0.1771700084209442,9.691679000854492,-0.003195793367922306,-0.003195793367922306,-0.001065264455974102
1540821096833872000,-0.1388629823923111,-0.15322811901569366,9.74435043334961,-0.004261057823896408,-0.004261057823896408,-0.002130528911948204
1540821096835872000,-0.07661405950784683,-0.21068866550922394,9.758715629577637,-0.006391586735844612,-0.001065264455974102,-0.004261057823896408
1540821096837871000,-0.11492109298706055,-0.268149197101593,9.797022819519043,-0.003195793367922306,-0.003195793367922306,-0.003195793367922306
1540821096839872000,-0.11970946937799454,-0.2346305549144745,9.763504028320312,-0.002130528911948204,-0.002130528911948204,-0.002130528911948204
1540821096841878000,-0.1340745985507965,-0.2633608281612396,9.83533000946045,-0.007456851191818714,-0.002130528911948204,-0.004261057823896408
1540821096843874000,-0.10055595636367798,-0.2346305549144745,9.806599617004395,-0.006391586735844612,-0.001065264455974102,-0.003195793367922306
1540821096845875000,-0.1388629823923111,-0.2250538021326065,9.758715629577637,-0.006391586735844612,-0.004261057823896408,-0.004261057823896408
1540821096847874000,-0.11492109298706055,-0.1819583922624588,9.672525405883789,-0.007456851191818714,-0.00532632227987051,-0.003195793367922306
1540821096849875000,-0.14843973517417908,-0.2346305549144745,9.797022819519043,-0.00532632227987051,-0.001065264455974102,-0.00532632227987051
1540821096851873000,-0.16759325563907623,-0.19632352888584137,9.701254844665527,-0.00532632227987051,-0.00532632227987051,-0.00532632227987051
1540821096853875000,-0.14843973517417908,-0.2298421859741211,9.753927230834961,-0.004261057823896408,-0.004261057823896408,-0.004261057823896408
1540821096855876000,-0.17238163948059082,-0.20111191272735596,9.768292427062988,-0.00532632227987051,-0.001065264455974102,-0.002130528911948204
1540821096857872000,-0.12928622961044312,-0.2633608281612396,9.773080825805664,-0.004261057823896408,-0.001065264455974102,-0.002130528911948204
1540821096859877000,-0.12449784576892853,-0.2346305549144745,9.763504028320312,-0.003195793367922306,-0.002130528911948204,-0.004261057823896408
1540821096861877000,-0.14843973517417908,-0.22026541829109192,9.801811218261719,-0.004261057823896408,-0.002130528911948204,-0.004261057823896408
1540821096863874000,-0.12928622961044312,-0.21068866550922394,9.729985237121582,-0.002130528911948204,-0.004261057823896408,-0.00532632227987051
1540821096865873000,-0.15801650285720825,-0.19153514504432678,9.758715629577637,-0.006391586735844612,-0.003195793367922306,-0.004261057823896408
1540821096867873000,-0.15322811901569366,-0.20590028166770935,9.715620040893555,-0.006391586735844612,-0.007456851191818714,-0.003195793367922306
1540821096869870000,-0.12449784576892853,-0.21547704935073853,9.691679000854492,-0.006391586735844612,-0.006391586735844612,-0.003195793367922306
1540821096871872000,-0.14365136623382568,-0.2346305549144745,9.739562034606934,-0.007456851191818714,-0.002130528911948204,-0.004261057823896408
1540821096873872000,-0.12449784576892853,-0.2298421859741211,9.830541610717773,-0.003195793367922306,-0.003195793367922306,-0.004261057823896408
1540821096875875000,-0.11492109298706055,-0.19632352888584137,9.758715629577637,-0.007456851191818714,-0.0,-0.004261057823896408
1540821096877873000,-0.14843973517417908,-0.24420730769634247,9.768292427062988,-0.006391586735844612,-0.001065264455974102,-0.003195793367922306
1540821096879872000,-0.15322811901569366,-0.23941893875598907,9.77786922454834,-0.00532632227987051,-0.002130528911948204,-0.002130528911948204
1540821096881873000,-0.12449784576892853,-0.2346305549144745,9.792234420776367,-0.004261057823896408,-0.002130528911948204,-0.00532632227987051
1540821096883872000,-0.11970946937799454,-0.1771700084209442,9.758715629577637,-0.00532632227987051,-0.004261057823896408,-0.00532632227987051
1540821096885872000,-0.08140243589878082,-0.2633608281612396,9.782657623291016,-0.009587380103766918,-0.003195793367922306,-0.003195793367922306
1540821096887874000,-0.14365136623382568,-0.19632352888584137,9.753927230834961,-0.006391586735844612,-0.001065264455974102,-0.001065264455974102
1540821096889873000,-0.14365136623382568,-0.20590028166770935,9.749138832092285,-0.008522115647792816,-0.00532632227987051,-0.004261057823896408
1540821096891873000,-0.14365136623382568,-0.20111191272735596,9.768292427062988,-0.009587380103766918,-0.002130528911948204,-0.004261057823896408
1540821096893872000,-0.15801650285720825,-0.1819583922624588,9.729985237121582,-0.00532632227987051,-0.0,-0.003195793367922306
1540821096895871000,-0.15322811901569366,-0.20590028166770935,9.792234420776367,-0.00532632227987051,-0.004261057823896408,-0.004261057823896408
1540821096897869000,-0.12928622961044312,-0.2250538021326065,9.753927230834961,-0.002130528911948204,-0.003195793367922306,-0.003195793367922306
1540821096899870000,-0.1340745985507965,-0.2250538021326065,9.806599617004395,-0.004261057823896408,-0.001065264455974102,-0.00532632227987051
1540821096901869000,-0.1340745985507965,-0.22026541829109192,9.797022819519043,-0.004261057823896408,-0.001065264455974102,-0.004261057823896408
1540821096903870000,-0.11013270914554596,-0.22026541829109192,9.787446022033691,-0.002130528911948204,-0.003195793367922306,-0.002130528911948204
1540821096905871000,-0.14365136623382568,-0.19632352888584137,9.787446022033691,-0.00532632227987051,-0.004261057823896408,-0.0
1540821096907874000,-0.15801650285720825,-0.1771700084209442,9.739562034606934,-0.007456851191818714,-0.008522115647792816,-0.006391586735844612
1540821096909872000,-0.15801650285720825,-0.1771700084209442,9.739562034606934,-0.007456851191818714,-0.008522115647792816,-0.006391586735844612
1540821096911873000,-0.14843973517417908,-0.22026541829109192,9.729985237121582,-0.006391586735844612,-0.002130528911948204,-0.002130528911948204
1540821096913875000,-0.1340745985507965,-0.2346305549144745,9.77786922454834,-0.006391586735844612,-0.002130528911948204,-0.003195793367922306
1540821096915875000,-0.11013270914554596,-0.21547704935073853,9.77786922454834,-0.002130528911948204,-0.001065264455974102,-0.003195793367922306
1540821096917875000,-0.1388629823923111,-0.20590028166770935,9.753927230834961,-0.001065264455974102,-0.002130528911948204,-0.004261057823896408
1540821096919874000,-0.09576757252216339,-0.19153514504432678,9.782657623291016,-0.002130528911948204,-0.002130528911948204,-0.004261057823896408
1540821096921875000,-0.12449784576892853,-0.23941893875598907,9.840118408203125,-0.003195793367922306,-0.003195793367922306,-0.003195793367922306
1540821096923874000,-0.15801650285720825,-0.25378406047821045,9.763504028320312,-0.003195793367922306,-0.004261057823896408,-0.004261057823896408
1540821096925874000,-0.1388629823923111,-0.2346305549144745,9.672525405883789,-0.00532632227987051,-0.003195793367922306,-0.00532632227987051
1540821096927873000,-0.12928622961044312,-0.1771700084209442,9.734773635864258,-0.009587380103766918,-0.004261057823896408,-0.004261057823896408
1540821096929874000,-0.16759325563907623,-0.21068866550922394,9.758715629577637,-0.00532632227987051,-0.00532632227987051,-0.003195793367922306
1540821096931875000,-0.11970946937799454,-0.21547704935073853,9.74435043334961,-0.002130528911948204,-0.002130528911948204,-0.004261057823896408
1540821096933873000,-0.10055595636367798,-0.24420730769634247,9.749138832092285,-0.007456851191818714,-0.0,-0.004261057823896408
1540821096935871000,-0.15322811901569366,-0.19153514504432678,9.734773635864258,-0.004261057823896408,0.001065264455974102,-0.00532632227987051
1540821096937876000,-0.10055595636367798,-0.23941893875598907,9.739562034606934,-0.004261057823896408,-0.001065264455974102,-0.00532632227987051
1540821096939869000,-0.1340745985507965,-0.24420730769634247,9.792234420776367,-0.006391586735844612,-0.0,-0.003195793367922306
1540821096941872000,-0.1340745985507965,-0.2298421859741211,9.801811218261719,-0.006391586735844612,-0.0,-0.004261057823896408
1540821096943874000,-0.1340745985507965,-0.2298421859741211,9.801811218261719,-0.006391586735844612,-0.0,-0.004261057823896408
1540821096945877000,-0.15801650285720825,-0.23941893875598907,9.820964813232422,-0.008522115647792816,-0.004261057823896408,-0.00532632227987051
1540821096947874000,-0.15801650285720825,-0.16759325563907623,9.749138832092285,-0.009587380103766918,-0.006391586735844612,-0.004261057823896408
1540821096949873000,-0.14843973517417908,-0.20590028166770935,9.701254844665527,-0.004261057823896408,-0.00532632227987051,-0.00532632227987051
1540821096951875000,-0.17238163948059082,-0.22026541829109192,9.749138832092285,-0.007456851191818714,-0.002130528911948204,-0.003195793367922306
1540821096953873000,-0.11013270914554596,-0.21068866550922394,9.72040843963623,-0.008522115647792816,-0.003195793367922306,-0.002130528911948204
1540821096955873000,-0.15322811901569366,-0.23941893875598907,9.729985237121582,-0.00532632227987051,-0.001065264455974102,-0.00532632227987051
1540821096957881000,-0.10534433275461197,-0.2298421859741211,9.77786922454834,-0.003195793367922306,-0.003195793367922306,-0.002130528911948204
1540821096959875000,-0.10534433275461197,-0.19632352888584137,9.739562034606934,-0.003195793367922306,-0.003195793367922306,-0.004261057823896408
1540821096961873000,-0.11492109298706055,-0.21068866550922394,9.773080825805664,-0.003195793367922306,0.001065264455974102,-0.004261057823896408
1540821096963873000,-0.14843973517417908,-0.21068866550922394,9.820964813232422,-0.003195793367922306,-0.001065264455974102,-0.00532632227987051
1540821096965872000,-0.12928622961044312,-0.22026541829109192,9.753927230834961,-0.009587380103766918,-0.004261057823896408,-0.004261057823896408
1540821096967872000,-0.1340745985507965,-0.2298421859741211,9.72040843963623,-0.009587380103766918,-0.00532632227987051,-0.002130528911948204
1540821096969871000,-0.14843973517417908,-0.19632352888584137,9.677313804626465,-0.00532632227987051,-0.00532632227987051,-0.00532632227987051
1540821096971885000,-0.12449784576892853,-0.2346305549144745,9.729985237121582,-0.006391586735844612,-0.003195793367922306,-0.006391586735844612
1540821096973873000,-0.11492109298706055,-0.1819583922624588,9.739562034606934,-0.00532632227987051,-0.003195793367922306,-0.006391586735844612
1540821096975873000,-0.12928622961044312,-0.2250538021326065,9.758715629577637,-0.004261057823896408,-0.001065264455974102,-0.007456851191818714
1540821096977873000,-0.10534433275461197,-0.268149197101593,9.782657623291016,-0.007456851191818714,-0.003195793367922306,-0.003195793367922306
1540821096979877000,-0.12928622961044312,-0.2346305549144745,9.806599617004395,-0.00532632227987051,-0.003195793367922306,-0.00532632227987051
1540821096981873000,-0.16280487179756165,-0.22026541829109192,9.797022819519043,-0.001065264455974102,-0.004261057823896408,-0.004261057823896408
1540821096983874000,-0.07661405950784683,-0.23941893875598907,9.739562034606934,-0.003195793367922306,-0.002130528911948204,-0.003195793367922306
1540821096985875000,-0.1340745985507965,-0.20111191272735596,9.763504028320312,-0.01065264455974102,-0.004261057823896408,-0.002130528911948204
1540821096987875000,-0.11492109298706055,-0.22026541829109192,9.792234420776367,-0.006391586735844612,-0.00532632227987051,-0.003195793367922306
1540821096989873000,-0.15322811901569366,-0.20111191272735596,9.72040843963623,-0.00532632227987051,-0.002130528911948204,-0.003195793367922306
1540821096991876000,-0.11013270914554596,-0.20111191272735596,9.763504028320312,-0.00532632227987051,-0.00532632227987051,-0.004261057823896408
1540821096993873000,-0.11492109298706055,-0.24420730769634247,9.710831642150879,-0.00532632227987051,-0.004261057823896408,-0.003195793367922306
1540821096995873000,-0.08140243589878082,-0.25378406047821045,9.729985237121582,-0.00532632227987051,-0.002130528911948204,-0.001065264455974102
1540821096997871000,-0.14365136623382568,-0.2346305549144745,9.729985237121582,0.0,-0.002130528911948204,-0.003195793367922306
1540821096999870000,-0.09576757252216339,-0.24420730769634247,9.830541610717773,-0.003195793367922306,-0.0,-0.004261057823896408
1540821097001871000,-0.07661405950784683,-0.20590028166770935,9.77786922454834,-0.003195793367922306,0.001065264455974102,-0.003195793367922306
1540821097003869000,-0.10055595636367798,-0.23941893875598907,9.792234420776367,-0.00532632227987051,-0.002130528911948204,-0.002130528911948204
1540821097005870000,-0.1340745985507965,-0.21547704935073853,9.773080825805664,-0.006391586735844612,-0.003195793367922306,-0.002130528911948204
1540821097007872000,-0.11970946937799454,-0.21547704935073853,9.739562034606934,-0.004261057823896408,-0.00532632227987051,-0.00532632227987051
1540821097009879000,-0.1340745985507965,-0.2346305549144745,9.725196838378906,-0.006391586735844612,-0.01065264455974102,-0.006391586735844612
1540821097011873000,-0.14365136623382568,-0.20111191272735596,9.739562034606934,-0.01065264455974102,-0.008522115647792816,-0.004261057823896408
1540821097013873000,-0.1340745985507965,-0.22026541829109192,9.768292427062988,-0.006391586735844612,-0.006391586735844612,-0.002130528911948204
1540821097015872000,-0.14843973517417908,-0.20111191272735596,9.749138832092285,-0.00532632227987051,-0.002130528911948204,-0.004261057823896408
1540821097017873000,-0.1340745985507965,-0.23941893875598907,9.797022819519043,-0.00532632227987051,0.001065264455974102,-0.004261057823896408
1540821097019873000,-0.11492109298706055,-0.22026541829109192,9.739562034606934,-0.00532632227987051,-0.001065264455974102,-0.002130528911948204
1540821097021872000,-0.12928622961044312,-0.2250538021326065,9.763504028320312,-0.00532632227987051,-0.002130528911948204,-0.002130528911948204
1540821097023872000,-0.11970946937799454,-0.2633608281612396,9.77786922454834,-0.004261057823896408,-0.004261057823896408,0.002130528911948204
1540821097025874000,-0.1340745985507965,-0.2250538021326065,9.801811218261719,-0.00532632227987051,-0.003195793367922306,-0.003195793367922306
1540821097027873000,-0.14365136623382568,-0.22026541829109192,9.710831642150879,-0.007456851191818714,-0.00532632227987051,-0.00532632227987051
1540821097029873000,-0.15322811901569366,-0.19153514504432678,9.753927230834961,-0.007456851191818714,-0.002130528911948204,-0.004261057823896408
1540821097031879000,-0.15801650285720825,-0.20111191272735596,9.739562034606934,-0.00532632227987051,-0.004261057823896408,-0.001065264455974102
1540821097033872000,-0.14365136623382568,-0.23941893875598907,9.706043243408203,-0.00532632227987051,-0.003195793367922306,-0.001065264455974102
1540821097035872000,-0.11970946937799454,-0.24899569153785706,9.739562034606934,-0.002130528911948204,-0.0,-0.003195793367922306
1540821097037869000,-0.11492109298706055,-0.19153514504432678,9.787446022033691,-0.003195793367922306,-0.003195793367922306,-0.004261057823896408
1540821097039872000,-0.11492109298706055,-0.24420730769634247,9.763504028320312,0.0,-0.0,-0.00532632227987051
1540821097041872000,-0.1388629823923111,-0.2298421859741211,9.710831642150879,-0.003195793367922306,-0.003195793367922306,-0.00532632227987051
1540821097043874000,-0.10055595636367798,-0.2346305549144745,9.792234420776367,-0.006391586735844612,-0.00532632227987051,-0.003195793367922306
1540821097045874000,-0.15322811901569366,-0.20590028166770935,9.734773635864258,-0.00532632227987051,-0.003195793367922306,-0.00532632227987051
1540821097047873000,-0.11970946937799454,-0.19632352888584137,9.782657623291016,-0.008522115647792816,-0.00532632227987051,-0.006391586735844612
1540821097049873000,-0.10055595636367798,-0.2250538021326065,9.715620040893555,-0.007456851191818714,-0.006391586735844612,-0.00532632227987051
1540821097051874000,-0.15322811901569366,-0.19153514504432678,9.686890602111816,-0.007456851191818714,-0.004261057823896408,-0.003195793367922306
1540821097053874000,-0.12928622961044312,-0.2250538021326065,9.734773635864258,-0.007456851191818714,-0.006391586735844612,-0.002130528911948204
1540821097055873000,-0.12449784576892853,-0.1867467761039734,9.710831642150879,-0.007456851191818714,-0.002130528911948204,-0.004261057823896408
1540821097057873000,-0.0909791961312294,-0.21068866550922394,9.74435043334961,-0.00532632227987051,0.001065264455974102,-0.003195793367922306
1540821097059890000,-0.12928622961044312,-0.19632352888584137,9.782657623291016,-0.004261057823896408,-0.002130528911948204,-0.00532632227987051
1540821097061908000,-0.10534433275461197,-0.2298421859741211,9.806599617004395,-0.004261057823896408,-0.004261057823896408,-0.001065264455974102
1540821097063873000,-0.11013270914554596,-0.24420730769634247,9.792234420776367,-0.004261057823896408,-0.001065264455974102,0.001065264455974102
1540821097065872000,-0.12449784576892853,-0.1819583922624588,9.768292427062988,-0.003195793367922306,-0.004261057823896408,-0.001065264455974102
1540821097067870000,-0.11970946937799454,-0.23941893875598907,9.820964813232422,-0.007456851191818714,-0.006391586735844612,-0.007456851191818714
1540821097069858000,-0.1340745985507965,-0.2346305549144745,9.729985237121582,-0.007456851191818714,-0.007456851191818714,-0.002130528911948204
1540821097071871000,-0.12928622961044312,-0.20590028166770935,9.77786922454834,-0.00532632227987051,-0.006391586735844612,-0.004261057823896408
1540821097073875000,-0.15801650285720825,-0.2298421859741211,9.691679000854492,-0.006391586735844612,-0.006391586735844612,-0.003195793367922306
1540821097075874000,-0.16280487179756165,-0.1867467761039734,9.710831642150879,-0.004261057823896408,-0.00532632227987051,-0.002130528911948204
1540821097077874000,-0.14843973517417908,-0.22026541829109192,9.768292427062988,-0.00532632227987051,-0.002130528911948204,-0.002130528911948204
1540821097079877000,-0.09576757252216339,-0.2298421859741211,9.753927230834961,-0.00532632227987051,-0.001065264455974102,-0.004261057823896408
1540821097081874000,-0.08140243589878082,-0.2298421859741211,9.787446022033691,-0.004261057823896408,-0.001065264455974102,-0.003195793367922306
1540821097083874000,-0.08619081974029541,-0.1867467761039734,9.81138801574707,-0.00532632227987051,-0.002130528911948204,-0.003195793367922306
1540821097085872000,-0.11492109298706055,-0.19153514504432678,9.749138832092285,-0.006391586735844612,-0.003195793367922306,-0.003195793367922306
1540821097087875000,-0.1388629823923111,-0.22026541829109192,9.734773635864258,-0.00532632227987051,-0.003195793367922306,-0.00532632227987051
1540821097089873000,-0.15322811901569366,-0.20590028166770935,9.806599617004395,-0.006391586735844612,-0.00532632227987051,-0.006391586735844612
1540821097091874000,-0.14843973517417908,-0.21068866550922394,9.753927230834961,-0.006391586735844612,-0.004261057823896408,-0.003195793367922306
1540821097093872000,-0.15322811901569366,-0.2250538021326065,9.734773635864258,-0.007456851191818714,-0.003195793367922306,-0.002130528911948204
1540821097095872000,-0.11970946937799454,-0.2633608281612396,9.715620040893555,-0.00532632227987051,-0.003195793367922306,-0.001065264455974102
1540821097097871000,-0.14843973517417908,-0.2250538021326065,9.792234420776367,-0.00532632227987051,-0.001065264455974102,-0.003195793367922306
1540821097099871000,-0.1388629823923111,-0.22026541829109192,9.806599617004395,-0.00532632227987051,-0.0,-0.003195793367922306
1540821097101871000,-0.12928622961044312,-0.20111191272735596,9.77786922454834,-0.003195793367922306,-0.0,-0.004261057823896408
1540821097103869000,-0.11970946937799454,-0.20590028166770935,9.806599617004395,-0.003195793367922306,-0.001065264455974102,-0.002130528911948204
1540821097105871000,-0.11492109298706055,-0.2298421859741211,9.81138801574707,-0.006391586735844612,-0.001065264455974102,-0.003195793367922306
1540821097107869000,-0.12928622961044312,-0.20590028166770935,9.725196838378906,-0.006391586735844612,-0.004261057823896408,-0.004261057823896408
1540821097109874000,-0.15801650285720825,-0.21068866550922394,9.753927230834961,-0.006391586735844612,-0.007456851191818714,-0.002130528911948204
1540821097111879000,-0.19632352888584137,-0.23941893875598907,9.72040843963623,-0.008522115647792816,-0.00532632227987051,-0.002130528911948204
1540821097113871000,-0.16280487179756165,-0.21068866550922394,9.763504028320312,-0.007456851191818714,-0.007456851191818714,-0.002130528911948204
1540821097115871000,-0.14365136623382568,-0.22026541829109192,9.68210220336914,-0.00532632227987051,-0.00532632227987051,-0.00532632227987051
1540821097117869000,-0.1340745985507965,-0.20590028166770935,9.782657623291016,-0.004261057823896408,-0.003195793367922306,-0.00532632227987051
1540821097119895000,-0.06703729927539825,-0.268149197101593,9.816176414489746,-0.002130528911948204,0.001065264455974102,-0.001065264455974102
1540821097121882000,-0.0909791961312294,-0.23941893875598907,9.753927230834961,-0.004261057823896408,-0.001065264455974102,-0.00532632227987051
1540821097123872000,-0.11492109298706055,-0.2298421859741211,9.710831642150879,-0.006391586735844612,-0.002130528911948204,-0.003195793367922306
1540821097125873000,-0.1340745985507965,-0.22026541829109192,9.806599617004395,-0.00532632227987051,-0.003195793367922306,-0.006391586735844612
1540821097127881000,-0.15322811901569366,-0.1867467761039734,9.782657623291016,-0.00532632227987051,-0.002130528911948204,-0.007456851191818714
1540821097129873000,-0.15322811901569366,-0.21547704935073853,9.706043243408203,-0.00532632227987051,-0.006391586735844612,-0.004261057823896408
1540821097131873000,-0.16759325563907623,-0.19632352888584137,9.768292427062988,-0.007456851191818714,-0.00532632227987051,-0.002130528911948204
1540821097133874000,-0.14843973517417908,-0.21547704935073853,9.725196838378906,-0.008522115647792816,-0.006391586735844612,-0.0
1540821097135872000,-0.15322811901569366,-0.23941893875598907,9.677313804626465,-0.007456851191818714,-0.001065264455974102,-0.003195793367922306
1540821097137870000,-0.1340745985507965,-0.17238163948059082,9.710831642150879,-0.009587380103766918,-0.003195793367922306,-0.004261057823896408
1540821097139872000,-0.12928622961044312,-0.22026541829109192,9.782657623291016,-0.006391586735844612,-0.002130528911948204,-0.001065264455974102
1540821097141872000,-0.12449784576892853,-0.2346305549144745,9.801811218261719,-0.00532632227987051,0.001065264455974102,-0.004261057823896408
1540821097143871000,-0.12449784576892853,-0.22026541829109192,9.816176414489746,-0.003195793367922306,-0.001065264455974102,-0.003195793367922306
1540821097145873000,-0.12449784576892853,-0.1867467761039734,9.782657623291016,-0.006391586735844612,-0.004261057823896408,-0.0
1540821097147872000,-0.14365136623382568,-0.2298421859741211,9.77786922454834,-0.007456851191818714,-0.003195793367922306,-0.004261057823896408
1540821097149874000,-0.12449784576892853,-0.23941893875598907,9.753927230834961,-0.009587380103766918,-0.004261057823896408,-0.004261057823896408
1540821097151879000,-0.11970946937799454,-0.22026541829109192,9.706043243408203,-0.01065264455974102,-0.002130528911948204,-0.004261057823896408
1540821097153874000,-0.1388629823923111,-0.20111191272735596,9.710831642150879,-0.008522115647792816,-0.00532632227987051,-0.001065264455974102
1540821097155874000,-0.1340745985507965,-0.21068866550922394,9.725196838378906,-0.007456851191818714,-0.004261057823896408,-0.001065264455974102
1540821097157873000,-0.11492109298706055,-0.24899569153785706,9.72040843963623,-0.00532632227987051,-0.001065264455974102,0.003195793367922306
1540821097159875000,-0.0909791961312294,-0.1771700084209442,9.710831642150879,-0.006391586735844612,-0.002130528911948204,-0.002130528911948204
1540821097161875000,-0.11492109298706055,-0.21547704935073853,9.830541610717773,-0.003195793367922306,-0.001065264455974102,-0.003195793367922306
1540821097163876000,-0.14365136623382568,-0.21547704935073853,9.77786922454834,-0.00532632227987051,-0.003195793367922306,-0.001065264455974102
1540821097165874000,-0.19632352888584137,-0.24899569153785706,9.792234420776367,-0.009587380103766918,-0.004261057823896408,-0.004261057823896408
1540821097167871000,-0.11970946937799454,-0.19632352888584137,9.74435043334961,-0.004261057823896408,-0.00532632227987051,-0.002130528911948204
1540821097169872000,-0.12928622961044312,-0.22026541829109192,9.725196838378906,-0.006391586735844612,-0.008522115647792816,-0.004261057823896408
1540821097171872000,-0.1340745985507965,-0.21068866550922394,9.739562034606934,-0.009587380103766918,-0.007456851191818714,-0.00532632227987051
1540821097173873000,-0.12928622961044312,-0.21547704935073853,9.68210220336914,-0.008522115647792816,-0.002130528911948204,-0.002130528911948204
1540821097175876000,-0.16280487179756165,-0.25378406047821045,9.710831642150879,-0.004261057823896408,-0.001065264455974102,-0.004261057823896408
1540821097177873000,-0.15322811901569366,-0.22026541829109192,9.773080825805664,-0.002130528911948204,-0.002130528911948204,-0.004261057823896408
1540821097179878000,-0.14365136623382568,-0.21547704935073853,9.725196838378906,-0.003195793367922306,-0.003195793367922306,-0.001065264455974102
1540821097181874000,-0.12449784576892853,-0.20111191272735596,9.763504028320312,-0.006391586735844612,-0.001065264455974102,0.001065264455974102
1540821097183873000,-0.10534433275461197,-0.20111191272735596,9.768292427062988,-0.004261057823896408,-0.0,-0.004261057823896408
1540821097185874000,-0.0909791961312294,-0.22026541829109192,9.782657623291016,-0.00532632227987051,-0.004261057823896408,-0.006391586735844612
1540821097187875000,-0.14843973517417908,-0.22026541829109192,9.768292427062988,-0.00532632227987051,-0.003195793367922306,-0.003195793367922306
1540821097189874000,-0.1388629823923111,-0.21068866550922394,9.734773635864258,-0.006391586735844612,-0.00532632227987051,-0.003195793367922306
1540821097191873000,-0.11970946937799454,-0.21068866550922394,9.792234420776367,-0.006391586735844612,-0.00532632227987051,-0.004261057823896408
1540821097193873000,-0.12928622961044312,-0.20111191272735596,9.739562034606934,-0.00532632227987051,-0.00532632227987051,-0.0
1540821097195874000,-0.12928622961044312,-0.19632352888584137,9.72040843963623,-0.008522115647792816,-0.001065264455974102,-0.0
1540821097197873000,-0.07182568311691284,-0.1771700084209442,9.749138832092285,-0.006391586735844612,-0.0,-0.002130528911948204
1540821097199873000,-0.12928622961044312,-0.2250538021326065,9.763504028320312,-0.00532632227987051,0.001065264455974102,-0.006391586735844612
1540821097201872000,-0.11970946937799454,-0.23941893875598907,9.72040843963623,-0.003195793367922306,-0.002130528911948204,-0.006391586735844612
1540821097203870000,-0.0909791961312294,-0.19632352888584137,9.763504028320312,-0.00532632227987051,-0.001065264455974102,-0.004261057823896408
1540821097205872000,-0.11492109298706055,-0.22026541829109192,9.749138832092285,-0.007456851191818714,-0.003195793367922306,-0.002130528911948204
1540821097207873000,-0.12928622961044312,-0.22026541829109192,9.773080825805664,-0.008522115647792816,-0.00532632227987051,-0.00532632227987051
1540821097209874000,-0.15322811901569366,-0.22026541829109192,9.758715629577637,-0.009587380103766918,-0.00532632227987051,-0.006391586735844612
1540821097211880000,-0.14843973517417908,-0.22026541829109192,9.729985237121582,-0.011717909015715122,-0.003195793367922306,-0.003195793367922306
1540821097213878000,-0.16280487179756165,-0.2346305549144745,9.734773635864258,-0.007456851191818714,-0.003195793367922306,-0.001065264455974102
1540821097215874000,-0.12928622961044312,-0.20590028166770935,9.787446022033691,-0.00532632227987051,-0.003195793367922306,-0.002130528911948204
1540821097217874000,-0.16280487179756165,-0.23941893875598907,9.758715629577637,-0.00532632227987051,-0.004261057823896408,-0.002130528911948204
1540821097219873000,-0.12928622961044312,-0.20111191272735596,9.749138832092285,-0.006391586735844612,-0.004261057823896408,-0.003195793367922306
1540821097221880000,-0.11970946937799454,-0.2250538021326065,9.787446022033691,-0.002130528911948204,-0.002130528911948204,-0.007456851191818714
1540821097223874000,-0.11970946937799454,-0.2346305549144745,9.787446022033691,-0.004261057823896408,-0.0,-0.003195793367922306
1540821097225873000,-0.08140243589878082,-0.1867467761039734,9.749138832092285,-0.006391586735844612,-0.004261057823896408,-0.004261057823896408
1540821097227874000,-0.12928622961044312,-0.21068866550922394,9.787446022033691,-0.006391586735844612,-0.00532632227987051,-0.001065264455974102
1540821097229874000,-0.14843973517417908,-0.23941893875598907,9.801811218261719,-0.006391586735844612,-0.006391586735844612,-0.002130528911948204
1540821097231872000,-0.1388629823923111,-0.2250538021326065,9.792234420776367,-0.01065264455974102,-0.00532632227987051,-0.001065264455974102
1540821097233871000,-0.14365136623382568,-0.24420730769634247,9.696466445922852,-0.009587380103766918,-0.004261057823896408,-0.003195793367922306
1540821097235871000,-0.1771700084209442,-0.20111191272735596,9.715620040893555,-0.00532632227987051,-0.001065264455974102,-0.001065264455974102
1540821097237873000,-0.1340745985507965,-0.19153514504432678,9.696466445922852,-0.006391586735844612,-0.004261057823896408,-0.003195793367922306
1540821097239873000,-0.11013270914554596,-0.24899569153785706,9.734773635864258,-0.003195793367922306,-0.004261057823896408,-0.004261057823896408
1540821097241871000,-0.062248922884464264,-0.19632352888584137,9.72040843963623,-0.00532632227987051,-0.001065264455974102,-0.0
1540821097243870000,-0.12928622961044312,-0.23941893875598907,9.801811218261719,-0.002130528911948204,-0.001065264455974102,-0.004261057823896408
1540821097245871000,-0.11013270914554596,-0.2250538021326065,9.753927230834961,-0.006391586735844612,-0.003195793367922306,-0.004261057823896408
1540821097247874000,-0.12449784576892853,-0.19632352888584137,9.753927230834961,-0.006391586735844612,-0.00532632227987051,-0.00532632227987051
1540821097249874000,-0.14843973517417908,-0.19153514504432678,9.753927230834961,-0.004261057823896408,-0.001065264455974102,-0.00532632227987051
1540821097251875000,-0.1340745985507965,-0.2250538021326065,9.739562034606934,-0.00532632227987051,-0.00532632227987051,-0.004261057823896408
1540821097253875000,-0.1771700084209442,-0.21068866550922394,9.739562034606934,-0.007456851191818714,-0.008522115647792816,-0.002130528911948204
1540821097255873000,-0.1340745985507965,-0.23941893875598907,9.739562034606934,-0.007456851191818714,-0.00532632227987051,-0.003195793367922306
1540821097257874000,-0.17238163948059082,-0.2298421859741211,9.749138832092285,-0.00532632227987051,-0.003195793367922306,-0.00532632227987051
